roll,pitch,yaw,ax,ay,az,gx,gy,gz
1,-20,-88,-0.94,-0.01,0.35,-0.61,0.00,0.31
0,-20,-88,-0.94,-0.01,0.35,-0.31,-0.24,0.31
0,-20,-89,-0.94,-0.01,0.35,0.00,-0.31,0.31
0,-20,-89,-0.95,-0.01,0.35,0.00,-0.31,0.31
0,-20,-89,-0.95,-0.01,0.35,0.31,-0.18,0.31
0,-20,-89,-0.95,-0.01,0.35,0.18,0.00,0.24
0,-20,-89,-0.95,-0.01,0.35,-0.12,0.06,0.18
0,-20,-89,-0.94,-0.01,0.35,-0.12,0.12,0.31
0,-20,-89,-0.94,-0.01,0.35,-0.12,0.12,0.31
0,-20,-89,-0.94,-0.01,0.35,-0.12,-0.31,0.18
0,-20,-89,-0.94,-0.01,0.35,-0.12,-0.12,0.12
0,-20,-89,-0.94,-0.01,0.35,-0.24,-0.06,0.24
0,-20,-89,-0.94,-0.00,0.34,-0.37,-0.24,0.24
0,-20,-89,-0.94,-0.00,0.34,-0.37,-0.24,0.24
0,-20,-89,-0.95,-0.00,0.34,-0.43,-0.37,0.12
0,-20,-89,-0.95,-0.00,0.34,-0.49,-0.43,0.37
0,-20,-89,-0.95,-0.01,0.34,-0.61,-0.18,0.37
0,-20,-89,-0.95,-0.01,0.34,-0.61,0.00,0.00
0,-20,-89,-0.95,-0.01,0.34,-0.55,-0.24,0.24
0,-20,-89,-0.95,-0.01,0.35,-0.55,-0.24,0.24
0,-20,-89,-0.95,-0.01,0.35,-0.43,-0.43,0.24
0,-20,-89,-0.95,-0.01,0.34,-0.31,-0.37,0.31
0,-20,-89,-0.95,-0.01,0.34,-0.18,-0.43,0.12
0,-20,-89,-0.95,-0.01,0.35,-0.06,-0.37,0.12
0,-20,-89,-0.95,-0.01,0.35,-0.06,-0.37,0.12
0,-20,-89,-0.95,-0.01,0.35,-0.12,-0.31,0.18
0,-20,-89,-0.95,-0.01,0.35,-0.06,-0.12,0.18
0,-20,-89,-0.95,-0.01,0.35,-0.24,-0.12,0.06
0,-20,-89,-0.94,-0.01,0.34,-0.55,0.06,-0.18
0,-20,-89,-0.95,-0.01,0.34,-1.22,0.12,-0.37
0,-20,-89,-0.95,-0.01,0.34,-1.22,0.12,-0.37
0,-20,-89,-0.95,-0.01,0.35,-1.28,-0.12,-0.18
0,-20,-89,-0.94,-0.01,0.35,-1.04,-0.43,-0.37
0,-20,-89,-0.94,-0.01,0.35,-0.79,-0.31,0.06
0,-20,-89,-0.95,-0.01,0.35,-0.49,-0.49,0.18
0,-20,-89,-0.95,-0.01,0.35,-0.06,-0.55,0.24
0,-20,-89,-0.95,-0.01,0.35,-0.06,-0.55,0.24
0,-20,-89,-0.95,-0.01,0.35,0.18,-0.18,0.37
0,-20,-89,-0.95,-0.01,0.35,0.12,-0.12,0.37
0,-20,-89,-0.94,-0.01,0.35,-0.18,0.00,0.00
0,-20,-89,-0.94,-0.01,0.34,-0.12,-0.06,0.06
0,-20,-89,-0.94,-0.01,0.34,-0.12,-0.06,0.06
0,-20,-89,-0.94,-0.01,0.34,-0.18,-0.06,0.06
0,-20,-89,-0.94,-0.01,0.35,0.00,-0.18,0.12
0,-20,-89,-0.94,-0.01,0.35,-0.24,-0.06,0.18
1,-20,-89,-0.95,-0.01,0.35,-0.55,-0.24,0.18
1,-20,-89,-0.95,-0.01,0.35,-0.67,-0.12,-0.06
1,-20,-89,-0.95,-0.02,0.36,-0.67,-0.12,-0.06
1,-20,-88,-0.94,-0.02,0.35,-1.04,0.00,-0.12
1,-20,-88,-0.94,-0.02,0.34,-1.34,0.18,-0.12
1,-20,-88,-0.94,-0.00,0.35,-1.28,-0.24,-0.18
1,-20,-88,-0.94,0.00,0.35,-1.16,-0.49,-0.31
1,-20,-88,-0.94,0.00,0.35,-1.16,-0.49,-0.31
0,-20,-88,-0.94,0.00,0.35,-1.22,-0.67,-0.18
0,-20,-88,-0.95,0.01,0.35,-1.04,-0.55,0.12
0,-20,-88,-0.95,0.01,0.35,-0.55,-0.55,0.18
0,-20,-88,-0.95,-0.00,0.35,-0.31,-0.61,0.18
0,-20,-88,-0.95,-0.00,0.35,-0.12,-0.49,-0.06
0,-20,-88,-0.95,-0.01,0.35,-0.12,-0.49,-0.06
0,-20,-88,-0.94,-0.01,0.35,0.18,-0.31,0.00
0,-20,-88,-0.94,-0.01,0.35,0.49,0.00,-0.12
0,-20,-88,-0.94,-0.01,0.35,0.43,-0.31,-0.24
0,-20,-88,-0.94,-0.01,0.34,0.24,-0.67,0.00
0,-20,-88,-0.94,-0.01,0.34,0.24,-0.67,0.00
0,-20,-88,-0.94,-0.01,0.35,0.18,-0.79,0.24
0,-20,-88,-0.95,-0.01,0.35,0.12,-0.85,0.31
0,-20,-88,-0.95,-0.01,0.35,0.00,-0.85,0.37
0,-20,-88,-0.95,-0.01,0.35,-0.18,-0.79,0.37
0,-20,-89,-0.95,-0.01,0.35,-0.18,-0.79,0.37
0,-20,-89,-0.95,-0.01,0.35,-0.43,-0.61,0.18
0,-20,-89,-0.95,-0.01,0.35,-0.61,-0.49,0.18
0,-20,-89,-0.95,-0.01,0.35,-0.37,-0.31,0.31
0,-20,-89,-0.94,-0.01,0.35,-0.18,-0.37,0.31
0,-20,-89,-0.94,-0.01,0.35,0.06,-0.37,0.37
0,-20,-89,-0.94,-0.01,0.35,0.06,-0.37,0.37
0,-20,-89,-0.94,-0.01,0.35,0.24,-0.49,0.24
0,-20,-89,-0.94,-0.01,0.35,0.37,-0.61,0.37
0,-20,-89,-0.95,-0.00,0.35,0.31,-0.67,0.49
0,-20,-89,-0.95,-0.01,0.35,0.00,-0.61,0.43
0,-20,-89,-0.95,-0.01,0.35,0.00,-0.61,0.43
0,-20,-89,-0.94,-0.01,0.35,-0.37,-0.43,0.43
0,-20,-89,-0.94,-0.01,0.34,-0.43,-0.06,0.49
0,-20,-89,-0.94,-0.00,0.34,-0.31,-0.24,0.24
0,-20,-89,-0.94,-0.00,0.35,-0.12,-0.61,0.24
0,-20,-89,-0.94,-0.00,0.35,-0.12,-0.61,0.24
0,-20,-89,-0.95,-0.01,0.35,0.31,-0.73,0.43
0,-20,-89,-0.95,-0.01,0.35,0.49,-0.61,0.37
0,-20,-89,-0.95,-0.01,0.35,0.24,-0.24,0.37
0,-20,-89,-0.95,-0.01,0.35,0.12,-0.18,0.31
0,-20,-89,-0.95,-0.01,0.35,0.00,-0.31,0.24
0,-20,-89,-0.95,-0.01,0.35,0.00,-0.31,0.24
0,-20,-89,-0.94,-0.01,0.35,-0.24,-0.31,0.37
0,-20,-89,-0.94,-0.01,0.35,-0.37,-0.31,0.37
0,-20,-89,-0.95,-0.01,0.35,-0.55,-0.55,0.37
0,-20,-89,-0.95,-0.00,0.34,-0.61,-0.49,0.49
0,-20,-89,-0.95,-0.00,0.34,-0.61,-0.49,0.49
0,-20,-89,-0.94,-0.00,0.34,-0.43,-0.61,0.61
0,-20,-89,-0.95,-0.00,0.34,-0.37,-0.67,0.37
0,-20,-89,-0.95,-0.01,0.35,-0.12,-0.85,0.55
0,-20,-89,-0.95,-0.01,0.35,0.24,-0.73,0.61
0,-20,-89,-0.95,-0.01,0.35,0.43,-0.67,0.49
0,-20,-89,-0.95,-0.01,0.35,0.43,-0.67,0.49
0,-20,-89,-0.95,-0.01,0.34,0.06,-0.49,0.61
0,-20,-89,-0.95,-0.01,0.34,-0.12,-0.49,0.55
0,-20,-89,-0.95,-0.01,0.34,-0.24,-0.55,0.43
0,-20,-89,-0.95,-0.01,0.34,-0.31,-0.61,0.61
0,-20,-89,-0.95,-0.01,0.34,-0.31,-0.61,0.61
0,-20,-89,-0.95,-0.01,0.34,-0.31,-0.79,0.61
0,-20,-89,-0.95,-0.01,0.34,-0.24,-1.04,0.55
0,-20,-89,-0.95,-0.00,0.34,-0.18,-0.85,0.61
0,-20,-89,-0.95,-0.00,0.34,-0.24,-0.67,0.49
0,-20,-89,-0.95,-0.00,0.34,-0.24,-0.67,0.49
0,-20,-89,-0.95,-0.01,0.35,-0.55,-0.61,0.37
0,-20,-89,-0.95,-0.01,0.35,-0.55,-0.61,0.43
0,-20,-89,-0.95,-0.01,0.35,-0.61,-0.55,0.49
0,-20,-89,-0.94,-0.01,0.35,-0.49,-0.61,0.43
0,-20,-89,-0.94,-0.01,0.35,-0.43,-0.61,0.49
0,-20,-89,-0.94,-0.01,0.35,-0.43,-0.61,0.49
0,-20,-89,-0.95,-0.01,0.35,-0.43,-0.49,0.73
0,-20,-89,-0.95,-0.01,0.35,-0.43,-0.43,0.61
0,-20,-89,-0.95,-0.01,0.35,-0.43,-0.18,0.49
0,-20,-89,-0.95,-0.01,0.35,-0.49,-0.24,0.61
0,-20,-89,-0.95,-0.01,0.35,-0.43,-0.24,0.55
0,-20,-89,-0.95,-0.01,0.34,-0.43,-0.24,0.55
0,-20,-89,-0.94,-0.01,0.35,-0.55,-0.18,0.61
0,-20,-89,-0.94,-0.01,0.35,-0.49,-0.24,0.61
0,-20,-89,-0.94,-0.01,0.34,-0.85,-0.24,0.49
0,-20,-89,-0.94,-0.01,0.34,-0.79,-0.43,0.61
0,-20,-89,-0.94,-0.01,0.34,-0.79,-0.43,0.61
0,-20,-89,-0.95,-0.01,0.35,-0.55,-0.67,0.61
0,-20,-89,-0.95,-0.02,0.36,-0.85,-0.24,0.49
0,-20,-89,-0.94,-0.02,0.36,-1.10,0.12,0.49
0,-20,-89,-0.95,-0.01,0.35,-0.67,0.37,0.49
0,-20,-89,-0.95,-0.01,0.35,-0.12,0.31,0.43
0,-20,-89,-0.95,-0.00,0.35,-0.12,0.31,0.43
0,-20,-89,-0.95,0.00,0.34,0.18,0.12,0.24
0,-20,-89,-0.95,0.00,0.34,0.12,0.12,0.24
0,-20,-89,-0.94,0.00,0.35,-0.24,0.12,0.37
0,-20,-89,-0.94,0.00,0.35,-0.24,0.12,0.37
0,-20,-89,-0.94,0.00,0.36,-0.55,0.18,0.55
0,-20,-89,-0.95,-0.00,0.35,-0.43,0.00,0.55
0,-20,-89,-0.95,-0.01,0.35,-0.24,-0.06,0.55
0,-20,-89,-0.95,-0.01,0.35,-0.18,0.06,0.37
0,-20,-89,-0.95,-0.01,0.35,-0.18,0.06,0.37
0,-20,-89,-0.94,-0.01,0.34,-0.55,0.06,0.12
0,-20,-89,-0.95,-0.01,0.34,-1.10,0.06,0.18
0,-20,-89,-0.95,-0.01,0.34,-1.22,-0.24,0.37
0,-20,-89,-0.95,-0.01,0.34,-0.73,-0.55,0.37
0,-20,-89,-0.95,-0.01,0.34,-0.24,-0.73,0.67
0,-20,-89,-0.95,-0.01,0.35,-0.24,-0.73,0.67
0,-20,-89,-0.95,-0.01,0.35,-0.24,-0.73,0.98
1,-20,-89,-0.95,-0.01,0.35,-0.31,-0.92,1.10
1,-20,-88,-0.95,-0.01,0.35,-0.55,-0.73,0.92
1,-20,-88,-0.95,-0.01,0.35,-0.79,-0.55,0.73
1,-20,-88,-0.95,-0.01,0.35,-0.79,-0.55,0.73
0,-20,-88,-0.94,-0.01,0.36,-0.85,-0.43,0.67
0,-20,-88,-0.94,-0.01,0.35,-0.55,-0.37,0.61
0,-20,-89,-0.94,-0.01,0.35,-0.06,-0.55,0.67
0,-20,-89,-0.95,-0.01,0.35,0.00,-0.43,0.67
0,-20,-89,-0.95,-0.01,0.35,-0.24,-0.12,0.67
0,-20,-89,-0.95,-0.01,0.35,-0.24,-0.12,0.67
0,-20,-89,-0.95,-0.01,0.35,-0.73,0.06,0.37
0,-20,-89,-0.95,-0.01,0.35,-1.04,0.00,0.37
0,-20,-89,-0.95,-0.01,0.34,-1.22,0.12,0.31
0,-20,-89,-0.94,-0.01,0.34,-1.28,0.12,0.43
0,-20,-89,-0.94,-0.01,0.34,-1.28,0.12,0.43
1,-20,-89,-0.94,-0.01,0.34,-1.34,0.06,0.31
1,-20,-88,-0.94,-0.01,0.34,-1.16,0.18,0.49
1,-20,-88,-0.95,-0.01,0.34,-0.98,0.31,0.61
0,-20,-89,-0.95,-0.01,0.34,-0.98,0.31,0.49
0,-20,-89,-0.95,-0.01,0.34,-0.98,0.31,0.49
0,-20,-89,-0.95,-0.01,0.35,-1.04,0.43,0.55
0,-20,-89,-0.95,-0.01,0.35,-0.98,0.31,0.61
0,-20,-89,-0.95,-0.01,0.35,-1.04,0.31,0.55
0,-20,-89,-0.95,-0.01,0.34,-0.92,0.06,0.43
0,-20,-89,-0.95,-0.01,0.34,-0.73,-0.12,0.43
0,-20,-89,-0.95,-0.01,0.34,-0.73,-0.12,0.43
0,-20,-89,-0.94,-0.01,0.35,-0.49,-0.12,0.12
0,-20,-89,-0.94,-0.00,0.35,-0.55,-0.12,0.24
0,-20,-89,-0.94,-0.00,0.34,-0.73,-0.37,0.43
0,-20,-89,-0.95,-0.00,0.34,-0.55,-0.37,0.43
0,-20,-89,-0.95,-0.00,0.34,-0.55,-0.37,0.43
0,-20,-89,-0.95,-0.00,0.34,-0.55,-0.18,0.37
0,-20,-89,-0.95,-0.01,0.34,-0.73,0.00,0.49
0,-20,-89,-0.95,-0.01,0.34,-0.79,-0.18,0.37
0,-20,-89,-0.95,-0.01,0.34,-0.92,-0.06,0.43
0,-20,-89,-0.95,-0.01,0.34,-0.92,-0.06,0.43
0,-20,-89,-0.95,-0.01,0.34,-0.92,0.06,0.43
0,-20,-89,-0.95,-0.01,0.34,-0.92,0.12,0.55
0,-20,-89,-0.95,-0.01,0.34,-0.79,-0.18,0.43
0,-20,-89,-0.95,-0.01,0.34,-0.92,-0.31,0.55
0,-20,-89,-0.95,-0.01,0.34,-0.98,-0.18,0.24
0,-20,-89,-0.94,-0.01,0.35,-0.98,-0.18,0.24
0,-20,-89,-0.94,-0.01,0.35,-1.04,-0.18,0.43
0,-20,-89,-0.95,-0.01,0.35,-1.10,-0.31,0.43
0,-20,-89,-0.95,-0.01,0.35,-1.22,-0.06,0.37
0,-20,-89,-0.95,-0.01,0.35,-1.10,0.06,0.49
0,-20,-89,-0.95,-0.01,0.35,-1.10,0.06,0.49
0,-20,-89,-0.95,-0.01,0.35,-0.85,-0.06,0.37
0,-20,-89,-0.94,-0.01,0.35,-0.73,-0.06,0.31
0,-20,-89,-0.94,-0.01,0.35,-0.55,-0.12,0.55
0,-20,-89,-0.94,-0.01,0.35,-0.55,-0.24,0.55
0,-20,-89,-0.94,-0.01,0.35,-0.67,-0.37,0.67
0,-20,-89,-0.94,-0.01,0.35,-0.67,-0.37,0.67
0,-20,-89,-0.95,-0.01,0.35,-0.85,-0.18,0.67
0,-20,-89,-0.95,-0.01,0.35,-1.34,-0.12,0.55
0,-20,-89,-0.94,-0.01,0.35,-1.53,-0.12,0.37
0,-20,-89,-0.94,-0.01,0.35,-1.59,-0.18,0.55
0,-20,-89,-0.94,-0.00,0.35,-1.59,-0.18,0.55
0,-20,-89,-0.94,-0.01,0.35,-1.46,-0.31,0.55
0,-20,-89,-0.94,-0.01,0.35,-1.22,-0.18,0.49
0,-20,-89,-0.94,-0.01,0.35,-1.10,-0.31,0.49
0,-20,-89,-0.94,-0.01,0.35,-0.79,-0.43,0.55
0,-20,-89,-0.94,-0.01,0.35,-0.79,-0.43,0.55
0,-20,-89,-0.94,-0.01,0.35,-0.73,-0.43,0.37
0,-20,-89,-0.95,-0.01,0.35,-0.67,-0.37,0.43
0,-20,-89,-0.95,-0.01,0.36,-0.98,-0.12,0.37
0,-20,-89,-0.94,-0.01,0.35,-1.46,0.06,0.24
0,-20,-89,-0.94,-0.01,0.35,-1.16,0.12,0.31
0,-20,-89,-0.94,-0.01,0.35,-1.16,0.12,0.31
0,-20,-89,-0.95,-0.00,0.35,-0.98,0.00,0.31
0,-20,-89,-0.95,0.00,0.35,-1.04,-0.31,0.37
0,-20,-89,-0.95,0.00,0.34,-0.98,-0.24,0.31
0,-20,-89,-0.95,0.00,0.34,-0.79,-0.31,0.24
0,-20,-89,-0.95,0.00,0.35,-0.79,-0.31,0.24
0,-20,-89,-0.95,0.00,0.35,-0.79,-0.43,0.31
0,-20,-89,-0.94,-0.00,0.35,-0.67,-0.85,0.37
0,-20,-89,-0.95,-0.01,0.35,-0.37,-0.73,0.49
0,-20,-89,-0.94,-0.01,0.35,-0.43,-0.43,0.43
0,-20,-89,-0.94,-0.01,0.35,-0.43,-0.43,0.43
0,-20,-89,-0.94,-0.01,0.35,-0.61,-0.67,0.55
0,-20,-89,-0.94,-0.01,0.34,-0.92,-0.98,0.49
0,-20,-89,-0.95,-0.00,0.34,-0.85,-1.04,0.55
0,-20,-89,-0.95,-0.00,0.35,-0.98,-0.79,0.61
0,-20,-89,-0.95,-0.00,0.35,-0.98,-0.79,0.61
0,-20,-89,-0.95,-0.00,0.35,-0.92,-0.55,0.43
0,-20,-89,-0.95,-0.00,0.35,-0.92,-0.49,0.43
0,-20,-89,-0.95,-0.01,0.35,-0.98,-0.43,0.73
0,-20,-89,-0.94,-0.01,0.35,-0.67,-0.43,0.79
0,-20,-89,-0.94,-0.01,0.35,-0.85,-0.43,0.67
0,-20,-89,-0.94,-0.01,0.35,-0.85,-0.43,0.67
0,-20,-89,-0.94,-0.01,0.35,-0.79,-0.55,0.61
0,-20,-89,-0.95,-0.01,0.35,-0.98,-0.67,0.61
0,-20,-89,-0.94,-0.01,0.35,-0.92,-0.67,0.55
0,-20,-89,-0.94,-0.01,0.35,-0.79,-0.61,0.67
0,-20,-89,-0.94,-0.01,0.35,-0.79,-0.61,0.67
0,-20,-89,-0.95,-0.01,0.35,-0.98,-0.73,0.55
0,-20,-89,-0.95,-0.01,0.35,-1.04,-0.67,0.43
0,-20,-89,-0.94,-0.01,0.35,-1.10,-0.49,0.49
0,-20,-89,-0.94,-0.01,0.34,-1.16,-0.49,0.49
0,-20,-89,-0.94,-0.01,0.34,-1.34,-0.43,0.49
0,-20,-89,-0.94,-0.01,0.34,-1.34,-0.43,0.49
0,-20,-89,-0.94,-0.00,0.35,-1.10,-0.55,0.61
0,-20,-89,-0.95,-0.00,0.35,-0.92,-0.49,0.67
0,-20,-89,-0.95,-0.00,0.35,-0.67,-0.37,0.73
0,-20,-89,-0.95,-0.01,0.35,-0.43,-0.37,0.55
0,-20,-89,-0.95,-0.01,0.35,-0.43,-0.37,0.55
0,-20,-89,-0.95,-0.01,0.35,-0.61,-0.12,0.37
0,-20,-89,-0.95,-0.01,0.35,-0.92,-0.24,0.43
0,-20,-89,-0.94,-0.01,0.35,-0.67,-0.55,0.61
0,-20,-89,-0.94,-0.01,0.34,-0.73,-0.43,0.55
0,-20,-89,-0.94,-0.01,0.34,-0.85,-0.43,0.55
0,-20,-89,-0.94,-0.00,0.34,-0.85,-0.43,0.55
0,-20,-89,-0.94,-0.00,0.34,-1.04,-0.61,0.55
0,-20,-89,-0.94,-0.00,0.34,-1.10,-0.55,0.55
0,-20,-89,-0.94,-0.00,0.34,-0.98,-0.55,0.55
0,-20,-89,-0.95,-0.00,0.34,-0.61,-0.55,0.55
0,-20,-90,-0.95,-0.00,0.34,-0.61,-0.55,0.55
0,-20,-90,-0.95,-0.01,0.35,-0.49,-0.31,0.55
0,-20,-90,-0.95,-0.01,0.34,-0.37,-0.06,0.61
0,-20,-89,-0.95,-0.01,0.35,-0.37,-0.24,0.49
0,-20,-89,-0.95,-0.01,0.34,-0.37,-0.31,0.43
0,-20,-89,-0.95,-0.01,0.34,-0.37,-0.24,0.31
0,-20,-89,-0.94,-0.01,0.34,-0.37,-0.24,0.31
0,-20,-89,-0.95,-0.01,0.34,-0.49,-0.37,0.49
0,-20,-89,-0.95,-0.01,0.35,-0.55,-0.12,0.55
0,-20,-89,-0.95,-0.00,0.35,-0.73,-0.24,0.61
0,-20,-89,-0.95,-0.00,0.35,-0.73,-0.12,0.55
0,-20,-89,-0.95,-0.00,0.35,-0.73,-0.12,0.55
0,-20,-89,-0.95,-0.00,0.35,-0.79,-0.12,0.37
0,-20,-89,-0.95,-0.00,0.35,-0.85,0.18,0.37
0,-20,-89,-0.94,-0.01,0.35,-0.61,0.18,0.31
0,-20,-89,-0.94,-0.01,0.35,-0.24,0.18,0.24
0,-20,-89,-0.94,-0.01,0.35,-0.24,0.18,0.24
0,-20,-89,-0.94,-0.01,0.35,-0.18,0.12,0.31
0,-20,-89,-0.94,-0.01,0.35,-0.06,0.06,0.37
0,-20,-89,-0.95,-0.01,0.35,-0.55,0.06,0.24
0,-20,-89,-0.94,-0.01,0.35,-0.92,0.12,0.43
0,-20,-89,-0.94,-0.01,0.35,-0.92,0.12,0.43
0,-20,-89,-0.94,-0.00,0.35,-0.92,0.00,0.49
0,-20,-89,-0.94,-0.00,0.35,-0.92,0.24,0.55
0,-20,-89,-0.95,-0.00,0.35,-0.85,0.43,0.31
0,-20,-89,-0.94,-0.01,0.35,-0.73,0.67,0.43
0,-20,-89,-0.94,-0.01,0.35,-0.73,0.67,0.43
0,-20,-89,-0.94,-0.01,0.34,-0.43,0.49,0.37
0,-20,-89,-0.94,-0.01,0.35,-0.31,0.18,0.37
0,-20,-89,-0.95,-0.01,0.35,-0.55,0.06,0.24
0,-20,-89,-0.95,-0.01,0.36,-0.85,0.43,0.18
0,-20,-89,-0.95,-0.01,0.36,-0.85,0.43,0.18
0,-20,-89,-0.95,-0.01,0.35,-1.04,0.61,0.06
0,-20,-89,-0.94,-0.01,0.35,-1.22,0.49,0.18
0,-20,-89,-0.93,-0.01,0.34,-1.22,0.24,0.24
0,-20,-89,-0.94,-0.00,0.34,-0.85,-0.12,0.31
0,-20,-89,-0.94,-0.00,0.34,-0.85,-0.12,0.31
0,-20,-89,-0.95,0.01,0.35,-0.37,-0.31,0.37
0,-20,-89,-0.95,0.01,0.34,-0.12,-0.31,0.37
0,-20,-89,-0.95,-0.00,0.34,-0.18,-0.06,0.37
0,-20,-89,-0.95,-0.00,0.35,-0.24,0.24,0.18
0,-20,-89,-0.95,-0.00,0.35,-0.43,0.06,0.00
0,-20,-89,-0.95,-0.01,0.35,-0.43,0.06,0.00
0,-20,-89,-0.94,-0.01,0.35,-0.37,-0.18,0.37
0,-20,-89,-0.94,-0.01,0.35,-0.24,-0.12,0.31
0,-20,-89,-0.94,-0.01,0.35,-0.37,-0.12,0.37
0,-20,-89,-0.94,-0.01,0.35,-0.61,-0.55,0.37
0,-20,-89,-0.94,-0.01,0.35,-0.61,-0.55,0.37
0,-20,-89,-0.95,-0.00,0.35,-0.73,-0.85,0.49
0,-20,-89,-0.95,-0.00,0.35,-0.98,-0.79,0.37
0,-20,-89,-0.95,-0.00,0.35,-0.79,-0.55,0.49
0,-20,-89,-0.95,-0.00,0.35,-0.37,-0.49,0.43
0,-20,-89,-0.95,-0.00,0.35,-0.37,-0.49,0.43
0,-20,-89,-0.95,-0.01,0.35,-0.06,-0.37,0.37
0,-20,-89,-0.94,-0.01,0.35,0.00,-0.18,0.37
0,-20,-89,-0.95,-0.01,0.35,0.06,-0.24,0.43
0,-20,-89,-0.94,-0.01,0.35,-0.31,-0.18,0.12
0,-20,-89,-0.94,-0.01,0.35,-0.31,-0.18,0.12
0,-20,-89,-0.94,-0.01,0.35,-0.31,-0.24,0.24
0,-20,-89,-0.94,-0.01,0.35,-0.37,-0.24,0.37
0,-20,-89,-0.94,-0.01,0.35,-0.49,-0.24,0.49
0,-20,-89,-0.94,-0.01,0.35,-0.55,-0.49,0.49
0,-20,-89,-0.94,-0.01,0.35,-0.67,-0.37,0.49
0,-20,-89,-0.95,-0.01,0.35,-0.67,-0.37,0.49
0,-20,-89,-0.94,-0.01,0.35,-0.79,-0.43,0.18
0,-20,-89,-0.94,-0.01,0.35,-0.49,-0.49,0.18
0,-20,-89,-0.94,-0.01,0.35,-0.37,-0.67,0.24
0,-20,-89,-0.94,-0.00,0.35,-0.18,-0.79,0.37
0,-20,-89,-0.94,-0.00,0.35,-0.18,-0.79,0.37
0,-20,-89,-0.95,-0.00,0.35,-0.06,-0.61,0.37
0,-20,-90,-0.95,-0.00,0.35,0.12,-0.55,0.24
0,-20,-90,-0.95,-0.01,0.35,0.31,-0.43,0.12
0,-20,-90,-0.95,-0.01,0.35,0.37,-0.12,0.18
0,-20,-90,-0.95,-0.01,0.35,0.37,-0.12,0.18
0,-20,-89,-0.95,-0.01,0.35,0.24,-0.24,0.00
0,-20,-89,-0.94,-0.01,0.35,0.00,-0.37,0.00
0,-20,-89,-0.94,-0.01,0.35,0.06,-0.31,0.24
0,-20,-89,-0.94,-0.01,0.35,-0.24,-0.55,0.37
0,-20,-89,-0.94,-0.01,0.35,-0.24,-0.55,0.37
0,-20,-89,-0.94,-0.00,0.35,-0.31,-0.67,0.31
0,-20,-89,-0.94,-0.00,0.35,-0.37,-0.79,0.31
0,-20,-90,-0.95,-0.00,0.35,-0.67,-0.79,0.18
0,-20,-90,-0.95,-0.00,0.35,-0.43,-0.79,0.18
0,-20,-90,-0.95,-0.00,0.35,-0.37,-0.73,0.18
0,-20,-90,-0.95,-0.01,0.35,-0.37,-0.73,0.18
0,-20,-90,-0.95,-0.01,0.35,-0.31,-0.55,0.18
0,-20,-89,-0.95,-0.01,0.35,-0.24,-0.49,0.06
0,-20,-89,-0.95,-0.01,0.34,0.06,-0.55,0.06
0,-20,-89,-0.95,-0.01,0.34,0.37,-0.73,0.12
0,-20,-89,-0.95,-0.01,0.34,0.37,-0.73,0.12
0,-20,-89,-0.95,-0.01,0.34,0.31,-0.85,0.18
0,-20,-89,-0.95,-0.00,0.34,0.37,-0.98,0.24
0,-20,-89,-0.95,-0.00,0.35,0.12,-1.04,0.18
0,-20,-89,-0.95,-0.00,0.35,-0.12,-0.98,0.18
0,-20,-89,-0.95,-0.00,0.35,-0.12,-0.98,0.18
0,-20,-89,-0.94,-0.01,0.35,-0.24,-0.85,0.06
0,-20,-89,-0.95,-0.00,0.34,-0.98,-0.67,-0.24
0,-20,-89,-0.95,-0.01,0.35,-1.40,-0.55,-0.37
0,-20,-89,-0.95,-0.01,0.35,-1.28,-0.55,-0.12
0,-20,-89,-0.95,-0.01,0.35,-1.28,-0.55,-0.12
0,-20,-89,-0.94,-0.01,0.35,-1.16,-0.49,-0.24
0,-20,-89,-0.95,-0.01,0.35,-0.85,-0.61,-0.12
0,-20,-89,-0.95,-0.00,0.35,-0.18,-0.85,0.31
0,-20,-89,-0.95,-0.00,0.35,0.37,-0.67,0.31
0,-20,-90,-0.95,-0.00,0.35,0.31,-0.61,0.49
0,-20,-90,-0.95,-0.01,0.35,0.31,-0.61,0.49
0,-20,-90,-0.95,-0.00,0.35,0.24,-0.43,0.37
0,-20,-90,-0.94,-0.01,0.35,0.06,-0.37,0.00
0,-20,-90,-0.94,-0.01,0.34,-0.12,-0.49,0.12
0,-20,-89,-0.94,-0.01,0.35,-0.18,-0.43,0.06
0,-20,-89,-0.94,-0.01,0.35,-0.18,-0.43,0.06
0,-20,-89,-0.94,-0.01,0.35,-0.12,-0.55,0.12
0,-20,-89,-0.94,-0.01,0.35,-0.06,-0.61,0.18
0,-20,-89,-0.94,-0.01,0.35,-0.06,-0.79,0.12
0,-20,-89,-0.94,-0.01,0.35,-0.18,-0.85,0.00
0,-20,-89,-0.94,-0.01,0.35,-0.18,-0.85,0.00
0,-20,-89,-0.94,-0.02,0.35,-0.92,-0.43,-0.12
0,-20,-89,-0.94,-0.01,0.35,-1.34,-0.18,-0.12
0,-20,-89,-0.94,-0.00,0.34,-1.16,-0.67,-0.18
0,-20,-89,-0.95,0.00,0.34,-0.85,-0.79,0.00
0,-20,-89,-0.95,0.01,0.34,-0.73,-0.85,0.06
0,-20,-89,-0.95,0.01,0.34,-0.73,-0.85,0.06
0,-20,-89,-0.95,0.01,0.35,-0.61,-0.98,0.12
0,-20,-89,-0.94,0.01,0.35,-0.24,-0.98,0.37
0,-20,-89,-0.94,0.01,0.35,0.18,-1.04,0.37
0,-20,-89,-0.94,0.00,0.35,0.61,-1.10,0.55
0,-20,-89,-0.94,0.00,0.35,0.61,-1.10,0.55
0,-20,-89,-0.94,-0.00,0.35,1.22,-1.10,0.55
0,-20,-89,-0.94,-0.01,0.34,0.98,-1.04,0.55
0,-20,-89,-0.94,-0.01,0.34,0.85,-1.46,0.37
0,-20,-89,-0.94,-0.01,0.33,0.79,-2.08,0.55
0,-20,-89,-0.94,-0.01,0.33,0.79,-2.08,0.55
0,-20,-89,-0.95,-0.01,0.33,1.22,-2.44,0.85
0,-20,-89,-0.95,-0.01,0.33,1.34,-2.62,1.40
0,-20,-89,-0.95,-0.01,0.33,1.65,-2.87,2.08
0,-20,-89,-0.94,-0.01,0.33,2.26,-3.17,2.50
0,-20,-89,-0.94,-0.01,0.33,2.69,-3.30,2.69
0,-20,-89,-0.94,-0.01,0.33,2.69,-3.30,2.69
0,-20,-89,-0.94,-0.01,0.34,3.48,-3.36,2.99
0,-20,-89,-0.94,-0.01,0.34,4.58,-3.97,3.05
0,-20,-89,-0.95,-0.02,0.34,5.74,-4.58,2.62
1,-20,-89,-0.95,-0.02,0.34,5.55,-3.91,1.89
1,-19,-88,-0.95,-0.04,0.33,5.55,-3.91,1.89
1,-19,-88,-0.96,-0.04,0.33,3.97,-2.93,0.85
1,-19,-88,-0.96,-0.04,0.33,2.69,-3.05,-0.06
1,-19,-88,-0.97,-0.04,0.32,2.01,-3.91,-0.49
1,-19,-88,-0.97,-0.04,0.32,2.56,-4.03,-0.79
1,-19,-88,-0.97,-0.05,0.31,2.56,-4.03,-0.79
1,-19,-88,-0.95,-0.05,0.32,3.85,-3.72,-1.34
1,-19,-88,-0.94,-0.05,0.32,4.46,-2.99,-1.89
1,-19,-88,-0.93,-0.05,0.31,3.54,-2.93,-2.20
1,-19,-88,-0.93,-0.05,0.29,3.17,-3.23,-2.26
2,-19,-88,-0.93,-0.05,0.29,2.32,-2.81,-2.20
2,-19,-87,-0.94,-0.06,0.28,2.32,-2.81,-2.20
2,-18,-87,-0.96,-0.08,0.26,0.49,-2.01,-2.44
2,-18,-87,-0.97,-0.10,0.27,-1.40,-0.73,-2.99
2,-18,-87,-0.99,-0.13,0.27,-4.27,0.55,-3.72
2,-18,-87,-1.01,-0.15,0.28,-8.24,1.71,-4.64
2,-18,-87,-1.01,-0.15,0.28,-8.24,1.71,-4.64
2,-18,-87,-1.02,-0.15,0.30,-11.90,2.87,-5.68
2,-18,-87,-1.01,-0.16,0.32,-15.20,4.03,-6.41
2,-18,-87,-0.99,-0.17,0.35,-17.76,5.00,-7.81
2,-18,-87,-0.98,-0.14,0.37,-19.78,4.46,-8.79
2,-18,-87,-0.97,-0.12,0.35,-22.28,3.91,-10.44
3,-18,-87,-0.97,-0.12,0.35,-22.28,3.91,-10.44
3,-18,-87,-0.96,-0.11,0.32,-24.11,4.64,-12.76
3,-18,-86,-0.96,-0.10,0.30,-24.11,5.98,-14.47
3,-18,-86,-0.97,-0.08,0.29,-22.89,6.35,-15.20
3,-18,-86,-0.98,-0.08,0.29,-23.25,5.55,-15.87
3,-18,-86,-0.98,-0.08,0.29,-23.93,3.85,-16.54
3,-18,-86,-1.01,-0.05,0.25,-23.93,3.85,-16.54
3,-18,-86,-1.01,-0.03,0.24,-23.62,3.30,-16.91
3,-18,-86,-1.02,-0.03,0.21,-21.85,3.17,-17.88
3,-18,-86,-1.01,-0.03,0.19,-20.39,3.60,-19.04
3,-18,-86,-1.02,-0.04,0.17,-19.17,4.33,-20.20
3,-18,-86,-1.02,-0.04,0.17,-16.66,4.70,-20.81
3,-18,-86,-1.01,-0.09,0.18,-16.66,4.70,-20.81
3,-18,-86,-0.98,-0.08,0.20,-15.38,5.86,-21.85
3,-18,-86,-0.97,-0.06,0.19,-16.54,8.12,-23.01
3,-18,-86,-0.95,-0.03,0.18,-18.13,9.22,-24.29
3,-17,-86,-0.94,-0.02,0.18,-15.81,9.22,-25.82
3,-17,-86,-0.94,-0.02,0.18,-15.81,9.22,-25.82
3,-16,-86,-0.94,-0.02,0.19,-13.67,9.22,-27.22
3,-15,-86,-0.94,-0.01,0.19,-12.45,9.64,-28.87
3,-14,-86,-0.94,0.00,0.19,-11.41,10.68,-30.58
3,-14,-85,-0.95,0.00,0.18,-11.11,12.39,-32.23
3,-13,-85,-0.95,0.00,0.18,-10.86,14.28,-33.63
2,-12,-85,-0.96,0.01,0.18,-10.86,14.28,-33.63
2,-11,-85,-0.96,0.00,0.19,-10.13,16.30,-34.79
2,-11,-85,-0.98,0.00,0.20,-8.73,18.19,-35.83
2,-11,-85,-0.98,-0.02,0.22,-7.20,19.41,-36.99
2,-11,-85,-0.98,-0.01,0.23,-7.32,20.20,-38.15
1,-11,-85,-0.98,-0.01,0.23,-7.32,20.20,-38.15
1,-11,-85,-0.99,-0.01,0.23,-8.73,21.91,-39.18
1,-11,-85,-0.97,0.00,0.25,-9.40,23.01,-40.10
1,-12,-85,-0.99,0.02,0.24,-9.89,24.54,-41.20
1,-12,-85,-0.99,0.03,0.27,-8.97,25.51,-40.95
1,-12,-85,-0.99,0.03,0.27,-7.08,25.88,-41.38
0,-12,-85,-0.98,0.00,0.27,-7.08,25.88,-41.38
0,-12,-85,-0.94,0.02,0.23,-11.60,28.87,-43.58
0,-12,-85,-0.94,0.07,0.22,-15.87,32.84,-45.96
0,-12,-85,-0.95,0.08,0.24,-16.11,34.12,-47.49
0,-12,-85,-0.96,0.11,0.28,-11.35,33.08,-47.18
0,-12,-85,-0.96,0.11,0.28,-11.35,33.08,-47.18
0,-13,-85,-0.97,0.11,0.31,-6.10,31.62,-46.33
0,-13,-85,-0.95,0.09,0.30,-5.62,30.82,-45.96
0,-13,-84,-0.95,0.14,0.29,-8.42,32.47,-45.90
0,-13,-84,-0.93,0.17,0.29,-9.89,35.40,-45.47
0,-13,-83,-0.93,0.17,0.29,-9.89,35.40,-45.47
0,-13,-83,-0.93,0.20,0.30,-12.70,37.72,-45.29
0,-13,-82,-0.94,0.23,0.34,-13.49,36.93,-44.37
0,-13,-82,-0.94,0.28,0.38,-14.77,36.32,-43.27
0,-13,-81,-0.97,0.33,0.41,-17.70,35.95,-42.11
0,-13,-81,-0.97,0.33,0.41,-17.76,36.38,-39.49
-1,-14,-80,-0.97,0.31,0.46,-17.76,36.38,-39.49
-1,-14,-79,-0.96,0.47,0.43,-18.19,36.44,-36.19
-1,-14,-79,-0.96,0.51,0.45,-19.65,34.00,-35.40
-1,-14,-78,-0.97,0.57,0.46,-15.38,35.52,-32.96
-1,-14,-77,-0.94,0.56,0.47,-8.12,36.25,-28.99
-1,-14,-77,-0.94,0.56,0.47,-8.12,36.25,-28.99
-1,-14,-76,-0.90,0.58,0.48,-3.23,34.91,-25.09
-1,-14,-76,-0.88,0.62,0.48,2.08,32.65,-20.26
-1,-15,-75,-0.90,0.62,0.51,9.03,30.09,-14.10
-1,-15,-74,-0.89,0.60,0.55,18.07,27.10,-7.39
-1,-15,-72,-0.89,0.60,0.55,25.82,24.72,-1.10
-1,-15,-66,-0.86,0.56,0.58,25.82,24.72,-1.10
-2,-15,-62,-0.86,0.53,0.59,29.30,22.95,5.00
-3,-16,-60,-0.84,0.49,0.61,29.24,21.97,10.19
-4,-16,-58,-0.86,0.51,0.64,28.56,20.51,14.65
-5,-16,-57,-0.86,0.51,0.64,28.56,20.51,14.65
-6,-16,-57,-0.86,0.50,0.69,30.94,18.13,18.98
-6,-16,-56,-0.85,0.47,0.74,37.29,12.76,23.38
-7,-16,-55,-0.83,0.42,0.77,44.07,4.03,26.86
-7,-16,-55,-0.82,0.38,0.73,45.04,-4.52,28.08
-7,-17,-54,-0.82,0.38,0.73,45.04,-4.52,28.08
-8,-17,-53,-0.84,0.34,0.67,39.86,-12.02,27.83
-8,-17,-53,-0.88,0.32,0.61,28.56,-17.82,26.49
-8,-17,-52,-0.93,0.31,0.59,15.93,-20.94,25.02
-8,-18,-51,-0.96,0.30,0.62,6.84,-22.09,23.99
-8,-18,-50,-0.96,0.30,0.62,6.84,-22.09,23.99
-8,-18,-47,-1.01,0.32,0.69,0.55,-24.66,23.80
-8,-18,-42,-1.05,0.36,0.75,-8.00,-28.20,21.85
-8,-18,-31,-1.09,0.44,0.79,-20.94,-30.09,18.07
-8,-18,-21,-1.08,0.54,0.82,-31.01,-28.44,14.40
-8,-19,-18,-1.08,0.54,0.82,-29.60,-25.88,11.29
-9,-19,-16,-1.05,0.63,0.86,-29.60,-25.88,11.29
-9,-20,-16,-1.03,0.66,0.83,-21.79,-26.86,8.48
-9,-20,-15,-1.03,0.70,0.79,-12.70,-30.27,6.16
-9,-21,-15,-1.02,0.71,0.72,-1.59,-31.37,3.72
-9,-21,-15,-1.03,0.70,0.68,12.82,-30.21,1.34
-9,-22,-15,-1.03,0.70,0.68,12.82,-30.21,1.34
-9,-22,-14,-1.01,0.73,0.68,27.59,-28.93,-0.31
-9,-22,-14,-1.04,0.63,0.69,44.43,-29.97,-1.34
-10,-23,-14,-1.07,0.56,0.65,51.88,-28.87,-3.30
-10,-23,-13,-1.08,0.48,0.64,53.77,-26.18,-4.52
-10,-23,-12,-1.08,0.48,0.64,52.25,-24.29,-6.16
-10,-23,-11,-1.09,0.43,0.62,52.25,-24.29,-6.16
-10,-23,-11,-1.07,0.38,0.63,46.94,-22.16,-7.63
-10,-23,-10,-1.05,0.36,0.63,42.05,-22.03,-8.67
-10,-24,-10,-1.02,0.37,0.65,38.94,-24.78,-9.22
-10,-24,-9,-0.98,0.37,0.66,41.56,-27.28,-9.46
-10,-25,-9,-0.98,0.37,0.66,41.56,-27.28,-9.46
-10,-25,-9,-0.94,0.39,0.64,45.78,-29.91,-10.50
-11,-25,-8,-0.92,0.40,0.62,46.20,-34.18,-11.72
-11,-26,-7,-0.89,0.42,0.61,47.42,-38.15,-12.33
-12,-26,-5,-0.87,0.46,0.62,47.49,-42.66,-12.88
-12,-26,-3,-0.88,0.49,0.62,49.38,-49.38,-13.31
-12,-27,-2,-0.88,0.49,0.62,49.38,-49.38,-13.31
-12,-27,-1,-0.91,0.49,0.59,51.64,-54.87,-14.10
-12,-27,-1,-0.93,0.47,0.51,54.14,-55.42,-15.14
-13,-27,0,-0.91,0.42,0.45,58.41,-51.09,-16.17
-13,-27,0,-0.89,0.35,0.40,65.31,-47.97,-17.76
-13,-27,1,-0.89,0.35,0.40,65.31,-47.97,-17.76
-13,-27,2,-0.84,0.28,0.42,73.43,-49.13,-20.57
-13,-27,3,-0.88,0.24,0.34,84.17,-53.71,-21.42
-13,-27,4,-0.89,0.22,0.36,92.16,-51.88,-16.97
-13,-27,5,-0.89,0.21,0.44,101.01,-50.96,-14.28
-13,-27,5,-0.89,0.21,0.44,110.47,-52.86,-12.82
-13,-27,5,-0.94,0.24,0.46,110.47,-52.86,-12.82
-13,-27,6,-0.97,0.27,0.43,116.27,-54.32,-12.82
-13,-27,6,-0.99,0.29,0.37,118.84,-53.65,-14.22
-13,-27,6,-0.99,0.29,0.33,124.27,-52.49,-15.56
-13,-27,7,-0.97,0.30,0.32,129.70,-52.25,-17.27
-14,-26,7,-0.97,0.30,0.32,129.70,-52.25,-17.27
-14,-26,7,-0.97,0.34,0.30,134.09,-52.37,-18.31
-14,-26,7,-0.99,0.31,0.30,146.91,-53.47,-18.19
-14,-26,7,-0.94,0.22,0.32,164.43,-54.87,-17.46
-14,-26,7,-0.93,0.21,0.26,170.10,-54.02,-18.25
-14,-26,8,-0.93,0.21,0.26,170.10,-54.02,-18.25
-14,-26,8,-0.90,0.19,0.23,171.20,-51.15,-18.68
-14,-25,9,-0.89,0.10,0.20,177.06,-49.01,-17.88
-14,-25,9,-0.89,0.08,0.15,182.62,-47.49,-15.63
-14,-25,10,-0.86,0.02,0.11,189.70,-45.90,-13.85
-14,-25,10,-0.86,0.02,0.11,189.70,-45.90,-13.85
-14,-25,10,-0.82,-0.01,0.09,197.57,-44.62,-11.78
-14,-25,10,-0.77,-0.01,0.09,198.18,-44.01,-10.93
-14,-24,10,-0.76,0.04,0.07,196.72,-44.13,-12.63
-14,-24,10,-0.69,-0.15,0.09,202.94,-41.08,-13.00
-14,-24,10,-0.69,-0.15,0.09,198.79,-45.78,-9.58
-14,-24,10,-0.68,-0.13,0.08,198.79,-45.78,-9.58
-13,-23,10,-0.64,-0.10,0.10,195.92,-48.10,-8.97
-13,-22,10,-0.65,-0.20,0.12,196.66,-46.69,-9.70
-13,-20,10,-0.63,-0.25,0.07,195.92,-49.07,-9.89
-13,-19,10,-0.66,-0.28,0.03,195.01,-54.50,-11.17
-13,-18,10,-0.66,-0.28,0.03,195.01,-54.50,-11.17
-13,-18,10,-0.71,-0.35,0.00,200.26,-57.92,-13.43
-13,-18,10,-0.78,-0.44,-0.01,203.00,-59.69,-18.49
-13,-18,10,-0.89,-0.52,-0.02,201.42,-61.71,-25.88
-13,-18,10,-1.05,-0.61,-0.01,199.10,-62.56,-31.80
-13,-17,10,-1.15,-0.72,0.00,196.84,-63.42,-37.17
-12,-17,10,-1.15,-0.72,0.00,196.84,-63.42,-37.17
-12,-17,10,-1.22,-0.80,0.03,191.96,-64.58,-41.69
-12,-17,9,-1.33,-0.86,0.06,188.54,-68.30,-42.85
-11,-16,9,-1.36,-0.87,0.08,182.37,-73.79,-43.64
-11,-15,9,-1.36,-0.88,0.05,171.94,-78.12,-42.97
-9,-14,8,-1.36,-0.88,0.05,166.50,-79.47,-40.65
-7,-14,7,-1.35,-0.88,-0.00,166.50,-79.47,-40.65
-3,-13,7,-1.30,-0.83,-0.03,166.93,-82.03,-36.87
3,-12,7,-1.24,-0.70,-0.04,171.14,-82.46,-33.20
4,-11,6,-1.16,-0.51,-0.02,175.84,-77.76,-30.21
5,-11,6,-1.03,-0.42,0.05,181.21,-68.85,-29.85
5,-10,6,-1.03,-0.42,0.05,184.20,-55.79,-29.48
5,-10,6,-0.98,-0.31,0.05,184.20,-55.79,-29.48
5,-10,5,-0.90,-0.25,0.11,191.59,-41.99,-28.93
5,-10,5,-0.80,-0.23,0.13,200.38,-28.44,-27.95
5,-10,5,-0.70,-0.21,0.24,208.50,-15.32,-26.67
5,-10,5,-0.70,-0.21,0.24,213.38,-6.23,-26.73
5,-10,5,-0.59,-0.20,0.24,213.38,-6.23,-26.73
5,-10,5,-0.51,-0.19,0.17,208.44,-2.56,-25.57
5,-10,5,-0.44,-0.14,0.09,200.56,-3.17,-25.27
6,-10,5,-0.39,-0.09,0.03,196.59,-1.89,-23.68
6,-10,5,-0.32,-0.03,0.02,198.55,2.01,-22.64
6,-10,5,-0.32,-0.03,0.02,198.55,2.01,-22.64
6,-10,5,-0.27,0.02,0.05,197.39,6.29,-24.60
6,-10,5,-0.23,-0.02,0.10,187.32,8.54,-28.99
6,-10,5,-0.34,0.13,0.08,169.25,8.48,-36.01
6,-10,5,-0.34,0.13,0.08,152.77,12.88,-47.61
6,-10,5,-0.40,0.19,0.08,152.77,12.88,-47.61
6,-10,5,-0.55,0.23,0.07,128.78,16.72,-58.84
6,-10,5,-0.74,0.25,0.02,106.75,19.71,-71.23
6,-10,5,-1.03,0.19,-0.02,88.50,21.67,-83.62
6,-10,5,-1.03,0.19,-0.02,88.50,21.67,-83.62
6,-10,5,-1.42,0.14,-0.10,72.14,21.18,-90.88
6,-10,5,-1.71,0.10,-0.16,61.89,21.36,-90.94
6,-10,5,-1.44,0.01,0.03,69.89,33.87,-83.19
6,-10,5,-1.44,0.01,0.03,99.18,48.89,-68.05
6,-10,5,-1.31,0.18,0.05,99.18,48.89,-68.05
5,-10,5,-1.03,0.21,0.34,144.59,55.66,-57.37
5,-10,5,-0.99,0.19,0.49,163.57,33.14,-57.01
5,-10,5,-1.02,0.08,0.51,155.40,16.42,-57.50
5,-10,5,-1.02,0.08,0.51,155.40,16.42,-57.50
5,-10,5,-1.05,0.01,0.45,129.27,28.02,-60.18
5,-10,5,-1.04,-0.00,0.33,90.88,43.09,-64.45
5,-10,5,-1.11,-0.04,0.17,54.38,47.55,-68.30
5,-10,5,-1.16,-0.08,0.01,19.90,51.09,-71.23
5,-10,5,-1.16,-0.08,0.01,19.90,51.09,-71.23
5,-10,5,-1.21,-0.05,-0.17,-10.19,52.12,-73.85
5,-10,5,-1.22,-0.03,-0.32,-23.50,47.49,-72.69
5,-10,5,-1.29,0.05,-0.43,-14.28,38.33,-65.43
5,-10,5,-1.37,0.10,-0.43,3.85,24.90,-54.38
4,-10,5,-1.37,0.10,-0.43,3.85,24.90,-54.38
4,-10,5,-1.53,0.09,-0.43,19.53,12.15,-43.82
4,-10,5,-1.64,0.10,-0.39,29.36,1.83,-35.34
4,-10,5,-1.70,0.12,-0.29,32.90,-6.65,-28.93
4,-10,5,-1.84,0.12,-0.28,29.05,-17.27,-23.19
3,-9,5,-1.84,0.12,-0.28,29.05,-17.27,-23.19
3,-9,5,-1.94,0.13,-0.15,27.89,-32.29,-18.25
3,-9,5,-1.93,0.19,0.02,32.29,-43.09,-13.61
1,-9,5,-1.98,0.27,0.10,34.00,-50.48,-10.07
1,-9,5,-1.95,0.24,0.18,35.58,-55.97,-7.69
0,-9,5,-1.95,0.24,0.18,35.58,-55.97,-7.69
0,-9,5,-1.87,0.22,0.21,40.65,-50.84,-3.23
0,-9,5,-1.77,0.20,0.24,54.20,-44.25,3.85
-1,-9,5,-1.70,0.20,0.31,65.43,-42.42,10.80
-1,-9,5,-1.59,0.17,0.38,77.88,-34.24,17.40
-1,-9,5,-1.59,0.17,0.38,77.88,-34.24,17.40
-2,-9,5,-1.39,0.11,0.50,87.89,-24.90,22.83
-3,-9,5,-1.19,0.16,0.64,86.55,-24.96,26.67
-3,-9,5,-1.00,0.27,0.71,80.44,-30.88,29.54
-3,-9,5,-0.79,0.33,0.59,75.13,-32.10,30.33
-4,-9,5,-0.79,0.33,0.59,75.13,-32.10,30.33
-4,-9,5,-0.54,0.34,0.40,71.78,-26.61,29.91
-4,-9,6,-0.26,0.32,0.31,73.67,-23.68,31.49
-4,-9,6,-0.09,0.35,0.23,79.16,-28.20,36.01
-4,-9,6,-0.08,0.28,0.22,87.16,-38.51,43.52
-4,-9,6,-0.08,0.28,0.22,87.16,-38.51,43.52
-4,-9,6,0.01,0.31,0.21,89.72,-47.18,46.88
-4,-9,6,-0.08,0.25,0.22,92.71,-53.59,50.05
-4,-9,6,-0.02,0.10,0.24,92.59,-54.69,52.67
-4,-9,6,-0.02,0.10,0.24,83.98,-56.58,48.34
-4,-9,6,-0.05,0.02,0.29,83.98,-56.58,48.34
-4,-10,6,-0.10,0.05,0.26,57.92,-57.74,45.72
-4,-10,7,-0.11,0.05,0.21,37.11,-48.22,43.82
-4,-10,7,-0.07,0.11,0.15,26.18,-33.63,46.33
-4,-10,7,-0.07,0.11,0.15,28.32,-23.44,49.13
-4,-10,7,-0.03,0.14,0.07,28.32,-23.44,49.13
-4,-10,7,-0.03,0.13,-0.01,43.15,-18.13,52.25
-4,-10,7,-0.06,0.12,-0.04,68.48,-16.30,55.60
-4,-10,7,-0.08,0.13,-0.00,92.59,-15.01,58.04
-4,-10,7,-0.08,0.13,-0.00,102.11,-11.60,58.11
-4,-10,7,-0.08,0.08,0.05,102.11,-11.60,58.11
-4,-10,7,-0.08,0.08,0.10,100.59,-5.62,54.63
-4,-10,7,-0.15,0.16,0.13,93.75,-3.11,51.21
-4,-10,7,-0.21,0.12,0.13,80.20,-3.17,47.73
-4,-10,7,-0.21,0.12,0.13,64.94,-9.22,43.76
-4,-10,7,-0.95,-0.15,0.02,64.94,-9.22,43.76
-4,-10,7,-2.79,-0.66,-0.34,47.18,-18.07,32.10
-4,-10,7,-3.24,-0.45,-0.42,21.67,-4.46,18.86
-4,-10,7,-2.38,0.39,-0.28,9.34,33.81,-12.88
-4,-10,7,-2.45,-0.31,0.31,28.02,37.78,-25.45
-4,-10,7,-2.45,-0.31,0.31,28.02,37.78,-25.45
-4,-10,7,-1.89,-1.09,0.42,-26.49,-2.08,-32.90
-4,-10,7,-1.05,-1.26,0.32,-76.35,4.15,-31.43
-4,-10,7,-1.18,-0.22,-0.73,-60.06,23.07,-5.74
-4,-10,7,-1.59,0.33,-0.96,46.75,5.43,17.15
-4,-9,7,-1.59,0.33,-0.96,143.62,-36.38,27.40
-4,-9,7,-2.21,-0.15,-0.34,143.62,-36.38,27.40
-4,-9,7,-2.35,-0.53,0.03,164.06,-99.61,19.41
-4,-9,7,-2.11,-1.04,0.54,145.32,-85.02,7.57
-4,-9,7,-2.13,-0.91,0.84,138.18,-20.57,-9.83
-4,-9,7,-1.90,-0.75,0.62,74.65,-9.46,-29.79
-4,-9,7,-1.90,-0.75,0.62,74.65,-9.46,-29.79
-4,-9,7,-1.67,-0.57,0.24,23.01,-30.21,-41.99
-4,-9,6,-1.43,-0.48,0.03,26.25,-38.27,-40.34
-4,-9,6,-1.20,-0.37,-0.08,47.91,-34.42,-33.45
-4,-9,6,-1.00,-0.25,-0.06,65.61,-25.63,-27.59
-4,-9,6,-1.00,-0.25,-0.06,85.57,-18.49,-23.25
-3,-9,6,-0.79,-0.21,0.01,85.57,-18.49,-23.25
-3,-9,6,-0.72,-0.15,0.08,104.06,-23.38,-17.33
-3,-9,6,-0.68,-0.05,0.13,108.46,-30.15,-13.79
-3,-9,6,-0.60,-0.01,0.15,100.65,-31.92,-14.65
-3,-9,6,-0.43,0.00,0.18,89.11,-26.43,-17.27
-3,-9,6,-0.43,0.00,0.18,89.11,-26.43,-17.27
-3,-9,6,-0.31,0.01,0.18,80.87,-15.63,-18.98
-3,-9,6,-0.20,0.02,0.18,81.30,-2.75,-18.68
-3,-9,6,-0.09,0.05,0.15,91.13,7.87,-16.48
-3,-9,6,-0.12,0.01,0.18,106.57,15.63,-11.96
-3,-10,6,-0.12,0.01,0.18,117.80,22.58,-10.38
-3,-10,6,-0.15,0.01,0.17,117.80,22.58,-10.38
-3,-10,6,-0.15,0.02,0.17,122.92,31.01,-12.21
-3,-10,6,-0.15,-0.01,0.15,119.26,38.15,-14.22
-3,-10,6,-0.17,-0.03,0.10,105.41,43.88,-17.33
-3,-10,6,-0.17,-0.03,0.10,86.36,49.38,-22.40
-3,-10,6,-0.18,-0.06,0.08,86.36,49.38,-22.40
-3,-10,6,-0.16,-0.03,0.05,67.20,53.22,-27.22
-3,-10,6,-0.13,-0.08,0.04,55.30,55.60,-31.13
-3,-10,6,-0.08,-0.09,0.01,40.34,53.16,-34.00
-3,-10,6,-0.06,-0.10,0.00,23.86,47.49,-36.99
-3,-10,6,-0.06,-0.10,0.00,23.86,47.49,-36.99
-3,-10,6,-0.06,-0.08,-0.01,7.75,43.21,-40.04
-3,-10,6,-0.08,-0.05,-0.02,-7.08,40.04,-42.85
-3,-10,6,-0.11,-0.01,-0.03,-19.59,39.73,-45.47
-3,-10,6,-0.11,-0.00,-0.02,-28.32,42.48,-47.49
-3,-10,6,-0.11,-0.00,-0.02,-37.29,43.64,-49.44
-3,-10,6,-0.19,-0.03,0.01,-37.29,43.64,-49.44
-2,-10,7,-0.67,-0.13,-0.02,-52.55,39.79,-52.37
-2,-10,7,-1.86,-0.62,-0.37,-75.26,30.27,-60.18
-2,-9,7,-3.74,-1.09,-0.83,-116.58,38.45,-59.51
-2,-9,7,-2.88,-0.64,-0.90,-210.69,71.72,-53.77
-2,-9,7,-2.88,-0.64,-0.90,-263.06,59.75,-59.08
-2,-8,7,-1.88,-0.06,-0.46,-263.06,59.75,-59.08
-2,-8,7,-1.74,0.85,-0.97,-259.83,-39.37,-20.39
-2,-8,7,-1.49,1.31,-0.89,-199.40,-101.07,-2.69
-2,-8,7,-1.83,1.55,-0.26,-89.17,-116.33,9.09
-2,-7,7,-2.22,1.21,0.04,-25.45,-154.72,9.52
-2,-7,7,-2.22,1.21,0.04,31.07,-184.08,14.59
-2,-7,7,-2.57,0.42,0.46,31.07,-184.08,14.59
-3,-7,7,-2.32,0.08,0.61,85.08,-131.29,18.19
-3,-7,7,-2.29,-0.26,0.80,94.67,-58.90,22.28
-3,-7,7,-2.24,-0.10,0.70,76.35,-10.38,22.95
-2,-7,7,-2.24,-0.10,0.70,44.62,15.26,19.35
-2,-7,7,-2.23,0.13,0.56,44.62,15.26,19.35
-2,-7,7,-2.06,0.27,0.42,20.57,44.98,13.55
-3,-7,7,-1.80,0.28,0.25,-7.87,68.97,8.12
-3,-7,7,-1.55,0.29,0.04,-35.77,73.55,3.85
-3,-7,7,-1.55,0.29,0.04,-35.77,73.55,3.85
-3,-7,7,-1.32,0.25,-0.20,-52.80,64.82,3.05
-3,-7,7,-1.12,0.13,-0.34,-49.44,46.14,6.96
-3,-7,7,-0.95,0.19,-0.37,-35.83,21.73,13.37
-3,-7,7,-0.71,0.17,-0.26,-19.04,3.17,17.40
-3,-7,7,-0.71,0.17,-0.26,-14.40,-10.13,19.41
-3,-7,7,-0.62,0.16,-0.15,-14.40,-10.13,19.41
-4,-7,7,-0.51,0.21,-0.04,-9.34,-24.05,22.34
-4,-7,7,-0.45,0.23,0.03,1.71,-36.74,25.76
-4,-7,7,-0.42,0.18,0.08,10.44,-39.92,28.63
-4,-7,7,-0.32,0.17,0.13,18.37,-31.86,30.27
-4,-7,7,-0.32,0.17,0.13,18.37,-31.86,30.27
-5,-7,7,-0.25,0.18,0.18,29.24,-25.39,32.04
-5,-7,7,-0.20,0.17,0.21,38.51,-23.44,33.26
-5,-7,7,-0.13,0.13,0.26,47.49,-24.35,34.48
-5,-7,7,-0.07,0.12,0.27,50.66,-25.21,35.89
-5,-7,7,-0.07,0.12,0.27,50.66,-25.21,35.89
-5,-7,7,-0.12,0.07,0.27,45.10,-21.00,37.84
-5,-7,7,-0.09,0.08,0.23,32.35,-17.09,37.29
-5,-7,7,-0.16,0.10,0.21,18.80,-14.77,35.64
-5,-7,7,-0.20,0.10,0.17,5.86,-12.88,33.81
-5,-7,7,-0.20,0.10,0.17,5.86,-12.88,33.81
-5,-7,8,-0.20,0.07,0.15,-2.26,-4.21,31.25
-5,-7,9,-0.17,0.03,0.14,-5.55,9.09,30.03
-5,-7,10,-0.17,0.01,0.11,-7.45,21.97,29.91
-5,-8,10,-0.15,-0.02,0.09,-13.00,31.98,29.17
-5,-8,10,-0.15,-0.02,0.09,-13.00,31.98,29.17
-5,-8,10,-0.20,-0.01,0.06,-22.46,37.72,28.14
-5,-8,10,-0.39,0.01,0.07,-31.07,39.98,27.65
-5,-8,10,-0.83,0.05,-0.01,-40.83,40.65,28.02
-5,-8,10,-1.38,-0.10,-0.01,-47.85,42.85,27.40
-5,-8,10,-1.38,-0.10,-0.01,-47.85,42.85,27.40
-5,-8,10,-1.98,-0.19,-0.02,-55.97,36.32,29.42
-5,-8,10,-2.10,-0.14,0.05,-70.50,10.50,32.10
-5,-8,10,-2.13,0.05,-0.23,-88.56,-30.33,28.81
-5,-8,10,-1.86,0.18,-0.54,-80.69,-48.46,24.60
-5,-7,10,-1.86,0.18,-0.54,-27.53,-29.36,25.70
-5,-7,10,-1.17,0.50,-0.07,-27.53,-29.36,25.70
-5,-7,10,-1.19,0.72,0.15,12.76,-22.09,24.72
-5,-7,10,-1.24,0.28,-0.24,27.89,-53.34,21.79
-5,-7,10,-1.54,-0.09,-0.33,55.24,-88.81,22.89
-5,-6,10,-1.57,-0.43,-0.20,79.04,-75.62,28.99
-5,-6,10,-1.57,-0.43,-0.20,79.04,-75.62,28.99
-5,-6,10,-1.41,-0.69,-0.01,79.53,-47.91,33.08
-5,-6,10,-1.40,-0.70,0.18,80.93,-29.17,37.11
-5,-6,10,-1.48,-0.61,0.37,76.23,-15.56,37.29
-5,-6,10,-1.50,-0.48,0.25,53.16,-5.25,28.69
-5,-6,10,-1.50,-0.48,0.25,53.16,-5.25,28.69
-5,-6,10,-1.47,-0.31,0.09,22.52,-4.03,17.21
-5,-6,10,-1.43,-0.17,-0.14,-2.08,-2.93,9.89
-4,-6,10,-1.24,-0.10,-0.22,-12.63,2.38,6.04
-4,-5,10,-1.04,-0.10,-0.24,-9.70,6.77,4.52
-4,-5,10,-0.85,-0.10,-0.12,-1.46,5.62,4.39
-4,-5,10,-0.85,-0.10,-0.12,-1.46,5.62,4.39
-4,-5,10,-0.82,-0.08,-0.05,9.77,-1.59,5.00
-4,-5,10,-0.74,-0.07,0.04,14.47,-4.58,5.13
-4,-5,10,-0.64,-0.00,0.07,9.70,-0.67,2.44
-4,-5,10,-0.55,0.06,0.08,5.92,4.88,-0.55
-4,-5,10,-0.55,0.06,0.08,5.92,4.88,-0.55
-4,-5,10,-0.49,0.02,0.07,7.08,9.40,-2.14
-4,-5,10,-0.43,0.01,0.06,9.64,12.76,-2.44
-4,-5,10,-0.41,0.03,0.02,12.27,14.34,-1.65
-4,-5,10,-0.36,0.01,0.03,20.02,18.92,0.00
-4,-5,10,-0.36,0.01,0.03,20.02,18.92,0.00
-4,-5,10,-0.33,-0.01,0.03,29.97,22.22,2.32
-4,-5,10,-0.33,-0.02,0.01,34.79,20.94,3.66
-3,-5,10,-0.33,-0.02,0.01,30.58,21.12,2.56
-3,-5,10,-0.33,-0.02,0.01,30.58,21.12,2.56
-3,-5,10,-0.31,-0.03,-0.03,19.04,22.16,0.37
-3,-4,10,-0.32,-0.02,-0.04,7.93,22.09,-1.71
-3,-4,10,-0.35,-0.03,-0.02,7.45,23.80,-2.62
-2,-4,10,-0.40,-0.06,0.01,10.50,24.60,-2.01
-2,-4,10,-0.40,-0.06,0.01,13.73,23.07,-1.46
-2,-4,10,-0.49,-0.09,0.04,13.73,23.07,-1.46
-1,-4,10,-0.59,-0.14,0.03,14.53,19.96,-1.65
-1,-4,10,-0.70,-0.16,0.04,12.70,16.36,-2.56
-1,-4,10,-0.81,-0.18,0.01,10.31,14.89,-3.54
-1,-4,10,-0.91,-0.18,0.02,9.09,16.36,-4.21
0,-4,10,-0.91,-0.18,0.02,9.09,16.36,-4.21
0,-3,10,-1.04,-0.17,0.02,9.22,17.27,-5.31
0,-3,10,-1.21,-0.17,0.02,8.97,13.55,-6.16
1,-3,10,-1.33,-0.14,0.04,14.34,10.74,-6.96
1,-3,9,-1.33,-0.14,0.04,16.66,12.15,-9.95
1,-2,8,-1.49,-0.16,0.04,16.66,12.15,-9.95
1,-2,7,-1.65,-0.23,0.03,11.78,17.03,-15.26
1,-2,6,-1.83,-0.27,-0.01,1.89,20.51,-21.24
2,-1,6,-1.98,-0.30,-0.03,-8.36,22.09,-26.55
2,-1,6,-1.98,-0.30,-0.03,-13.55,20.69,-29.85
3,-1,6,-2.06,-0.30,-0.02,-13.55,20.69,-29.85
4,-1,6,-2.08,-0.29,0.02,-16.60,16.91,-32.29
4,-1,6,-2.01,-0.23,0.08,-18.92,10.62,-33.45
4,-1,6,-1.88,-0.13,0.11,-18.01,4.39,-33.51
4,-1,6,-1.69,-0.06,0.12,-14.59,2.08,-34.48
4,-1,6,-1.69,-0.06,0.12,-14.59,2.08,-34.48
4,-1,6,-1.51,-0.01,0.08,-12.76,2.56,-35.58
4,-1,6,-1.29,-0.03,0.02,-15.63,1.16,-36.99
4,-1,6,-1.09,-0.03,-0.01,-19.47,0.43,-36.32
4,-1,6,-0.97,0.05,-0.00,-18.19,1.83,-33.45
4,-1,6,-0.97,0.05,-0.00,-18.19,1.83,-33.45
4,-1,6,-0.92,0.07,0.07,-17.40,-0.06,-30.88
4,-1,6,-0.89,0.09,0.14,-22.34,-4.64,-27.89
4,-1,6,-0.90,0.06,0.11,-31.86,-9.89,-26.00
4,-1,6,-0.93,0.10,0.06,-34.06,-13.92,-21.36
4,-1,6,-0.93,0.10,0.06,-22.22,-18.19,-14.59
4,-1,6,-0.98,0.12,0.07,-22.22,-18.19,-14.59
3,-1,6,-1.02,0.17,0.11,-15.63,-24.11,-10.07
3,-1,6,-1.06,0.21,0.15,-15.08,-27.77,-8.06
3,-2,6,-1.06,0.20,0.20,-19.10,-23.13,-8.42
3,-2,6,-1.06,0.20,0.20,-28.56,-15.87,-10.25
3,-2,6,-1.04,0.18,0.21,-28.56,-15.87,-10.25
2,-2,7,-0.99,0.16,0.16,-36.93,-8.79,-10.80
2,-2,7,-0.97,0.13,0.12,-35.03,-4.76,-9.09
2,-2,8,-0.97,0.13,0.09,-27.89,-3.97,-6.10
1,-2,8,-0.98,0.12,0.06,-23.68,-1.40,-3.91
1,-2,8,-0.98,0.12,0.06,-23.68,-1.40,-3.91
0,-2,9,-0.95,0.13,0.03,-21.67,1.83,-2.56
0,-2,9,-0.93,0.16,-0.01,-17.46,4.46,-0.61
-1,-2,9,-0.89,0.14,-0.03,-10.74,5.74,2.26
-1,-2,9,-0.87,0.15,-0.06,-5.07,4.21,4.03
-2,-2,9,-0.87,0.15,-0.06,-5.07,4.21,4.03
-3,-2,8,-0.86,0.14,-0.08,-3.66,0.73,4.27
-3,-2,8,-0.82,0.09,-0.09,-5.37,-0.61,4.15
-3,-2,8,-0.79,0.11,-0.08,-8.18,-2.38,3.66
-3,-2,8,-0.79,0.07,-0.07,-7.63,-5.74,3.42
-3,-2,8,-0.79,0.07,-0.07,-8.85,-7.57,3.78
-3,-2,8,-0.78,0.00,-0.04,-8.85,-7.57,3.78
-3,-1,8,-0.76,-0.03,-0.03,-12.82,-6.16,4.27
-3,-1,8,-0.72,-0.02,-0.02,-18.86,-3.23,4.33
-3,-1,8,-0.70,0.00,-0.02,-25.51,0.67,3.66
-3,-1,8,-0.69,0.02,-0.04,-31.68,3.42,2.26
-3,-1,8,-0.69,0.02,-0.04,-31.68,3.42,2.26
-3,-1,8,-0.67,0.04,-0.07,-35.52,4.46,1.16
-3,0,8,-0.66,0.05,-0.09,-39.55,3.72,-0.24
-3,0,8,-0.67,0.07,-0.14,-45.53,2.62,-2.20
-3,0,8,-0.66,0.07,-0.17,-49.19,1.77,-3.36
-3,0,8,-0.66,0.07,-0.17,-46.20,-0.92,-3.48
-3,0,8,-0.65,0.07,-0.17,-46.20,-0.92,-3.48
-4,0,7,-0.67,0.06,-0.15,-41.99,-5.13,-3.48
-4,0,7,-0.69,0.06,-0.12,-40.83,-8.85,-4.03
-4,0,3,-0.72,0.07,-0.10,-42.42,-10.50,-5.19
-4,0,2,-0.74,0.08,-0.07,-44.25,-11.72,-6.59
-4,0,2,-0.74,0.08,-0.07,-44.25,-11.72,-6.59
-4,0,1,-0.78,0.08,-0.05,-44.86,-13.12,-8.06
-5,0,1,-0.81,0.07,-0.04,-44.98,-12.76,-9.22
-5,0,1,-0.82,0.05,-0.03,-44.13,-10.62,-10.38
-5,0,1,-0.84,0.05,-0.03,-42.36,-7.32,-10.68
-5,1,1,-0.84,0.05,-0.03,-38.64,-2.81,-10.44
-5,1,1,-0.84,0.04,-0.02,-38.64,-2.81,-10.44
-5,1,1,-0.86,0.03,-0.03,-32.84,2.81,-9.89
-5,1,1,-0.87,0.03,-0.03,-27.40,9.40,-9.03
-5,1,0,-0.87,0.02,-0.04,-23.38,15.99,-8.24
-5,1,0,-0.85,0.01,-0.07,-22.77,21.30,-7.81
-4,1,0,-0.85,0.01,-0.07,-22.77,21.30,-7.81
-4,1,0,-0.85,0.03,-0.09,-21.73,25.33,-6.84
-4,2,0,-0.85,0.04,-0.13,-20.57,28.02,-5.49
-4,2,0,-0.85,0.04,-0.16,-16.91,29.72,-3.72
-4,2,-1,-0.88,0.06,-0.20,-12.94,29.72,-1.77
-4,2,-1,-0.88,0.06,-0.20,-10.25,29.42,0.37
-4,2,-1,-0.90,0.08,-0.24,-10.25,29.42,0.37
-4,2,-2,-0.91,0.09,-0.24,-8.97,28.75,1.46
-4,2,-5,-0.96,0.09,-0.26,-8.30,27.10,3.05
-4,2,-17,-1.00,0.09,-0.28,-8.91,24.84,4.64
-4,2,-24,-1.00,0.09,-0.28,-10.38,22.22,5.98
-4,2,-32,-1.06,0.08,-0.29,-10.38,22.22,5.98
-4,3,-38,-1.10,0.08,-0.29,-11.41,19.65,7.08
-4,3,-43,-1.15,0.07,-0.29,-13.12,15.81,8.18
-4,4,-46,-1.19,0.07,-0.27,-15.08,9.77,9.46
-4,5,-49,-1.22,0.08,-0.24,-15.81,3.36,10.93
-4,5,-51,-1.22,0.08,-0.24,-15.81,3.36,10.93
-4,5,-52,-1.27,0.09,-0.22,-16.72,-1.28,11.84
-4,5,-53,-1.30,0.11,-0.20,-17.94,-3.23,12.51
-4,5,-53,-1.33,0.12,-0.18,-16.78,-3.54,13.49
-4,5,-53,-1.35,0.11,-0.19,-14.28,-2.50,14.65
-4,5,-53,-1.35,0.11,-0.19,-10.38,0.24,15.81
-4,5,-53,-1.38,0.10,-0.19,-10.38,0.24,15.81
-4,5,-53,-1.41,0.10,-0.19,-7.57,4.15,17.21
-4,6,-53,-1.44,0.10,-0.21,-5.98,7.75,18.31
-4,6,-53,-1.47,0.12,-0.23,-5.43,10.68,19.23
-4,6,-53,-1.47,0.12,-0.23,-4.09,14.40,20.20
-4,6,-54,-1.48,0.12,-0.25,-4.09,14.40,20.20
-4,7,-54,-1.52,0.11,-0.28,-2.44,18.43,20.63
-4,7,-54,-1.57,0.07,-0.31,-1.22,20.94,20.63
-4,7,-54,-1.60,0.02,-0.31,0.24,20.57,21.06
-4,7,-54,-1.62,-0.03,-0.26,0.06,17.15,21.61
-4,8,-54,-1.62,-0.03,-0.26,0.06,17.15,21.61
-4,8,-54,-1.63,-0.08,-0.17,-2.08,9.34,22.34
-4,8,-54,-1.62,-0.05,-0.06,-7.57,-2.20,23.19
-4,7,-54,-1.57,-0.04,0.08,-15.81,-13.73,23.01
-4,7,-54,-1.51,0.08,0.19,-25.57,-26.55,22.40
-4,7,-54,-1.51,0.08,0.19,-25.57,-26.55,22.40
-4,7,-54,-1.40,0.13,0.29,-32.53,-31.56,20.94
-4,7,-54,-1.24,0.15,0.34,-33.81,-28.87,18.80
-4,7,-54,-1.09,0.16,0.33,-31.49,-23.86,16.97
-4,7,-54,-1.04,0.16,0.25,-29.60,-20.02,16.11
-4,7,-54,-1.04,0.16,0.25,-26.49,-12.94,15.01
-4,7,-54,-0.98,0.17,0.22,-26.49,-12.94,15.01
-4,7,-54,-0.94,0.19,0.24,-19.59,-5.19,13.43
-4,7,-54,-0.89,0.15,0.30,-14.04,-0.12,12.21
-4,7,-53,-0.85,0.11,0.35,-13.92,4.58,11.29
-4,7,-52,-0.85,0.11,0.35,-15.81,9.09,11.72
-4,7,-52,-0.81,0.10,0.33,-15.81,9.09,11.72
-4,6,-51,-0.73,0.09,0.28,-18.98,11.66,13.49
-4,6,-51,-0.68,0.10,0.21,-21.42,11.17,15.69
-5,6,-50,-0.65,0.11,0.16,-24.72,6.41,17.64
-5,6,-50,-0.65,0.11,0.16,-26.67,-1.04,19.65
-5,6,-49,-0.65,0.12,0.14,-26.67,-1.04,19.65
-5,5,-49,-0.66,0.12,0.15,-26.92,-8.79,21.67
-5,5,-48,-0.71,0.11,0.15,-29.48,-15.87,23.07
-6,5,-48,-0.75,0.08,0.14,-34.36,-21.91,23.56
-6,5,-48,-0.78,0.06,0.13,-40.53,-25.76,23.19
-6,5,-47,-0.78,0.06,0.13,-40.53,-25.76,23.19
-6,5,-47,-0.84,0.03,0.10,-46.08,-27.34,23.01
-6,5,-46,-0.87,0.00,0.08,-46.57,-28.08,24.23
-6,5,-46,-0.92,-0.02,0.06,-43.09,-27.59,25.70
-6,4,-46,-0.95,-0.04,0.03,-39.67,-26.73,27.53
-5,4,-46,-0.95,-0.04,0.03,-36.07,-26.49,29.42
-5,4,-46,-0.98,-0.05,0.00,-36.07,-26.49,29.42
-5,4,-46,-0.99,-0.05,-0.02,-33.94,-25.02,30.70
-5,4,-46,-0.99,-0.06,-0.05,-33.26,-24.54,31.43
-5,4,-46,-0.97,-0.06,-0.07,-35.16,-24.23,31.13
-5,4,-46,-0.95,-0.08,-0.09,-36.74,-25.15,30.64
-5,4,-46,-0.95,-0.08,-0.09,-36.74,-25.15,30.64
-5,4,-46,-0.94,-0.11,-0.11,-39.55,-26.31,29.48
-4,4,-46,-0.95,-0.11,-0.16,-41.56,-27.53,28.69
-4,4,-46,-0.96,-0.11,-0.20,-40.10,-28.56,28.20
-4,4,-46,-0.97,-0.16,-0.19,-36.38,-28.81,28.50
-3,5,-46,-0.99,-0.15,-0.18,-33.63,-28.44,29.85
-3,5,-46,-0.99,-0.15,-0.18,-35.22,-31.98,30.94
-3,5,-45,-0.99,-0.09,-0.20,-35.22,-31.98,30.94
-3,5,-44,-0.99,-0.08,-0.20,-40.16,-37.72,30.52
-2,5,-43,-0.99,-0.08,-0.19,-44.74,-41.75,30.03
-2,5,-42,-0.95,-0.09,-0.16,-50.48,-42.79,29.54
-2,6,-41,-0.94,-0.07,-0.15,-58.47,-42.97,29.05
-1,7,-40,-0.94,-0.07,-0.15,-63.42,-44.01,29.85
-1,7,-40,-0.93,-0.04,-0.14,-63.42,-44.01,29.85
-1,7,-39,-0.91,-0.02,-0.13,-67.26,-44.01,30.70
-1,7,-38,-0.92,-0.01,-0.12,-68.91,-42.24,31.56
-1,7,-38,-0.90,-0.03,-0.09,-67.75,-38.45,32.47
-1,7,-37,-0.91,-0.06,-0.11,-70.43,-33.87,32.04
-1,7,-36,-0.92,-0.08,-0.14,-77.94,-29.60,30.82
-1,7,-35,-0.92,-0.08,-0.14,-77.94,-29.60,30.82
0,7,-35,-0.90,-0.09,-0.17,-82.21,-23.80,30.21
0,7,-34,-0.89,-0.10,-0.18,-78.19,-18.37,30.21
0,8,-34,-0.89,-0.13,-0.20,-74.52,-12.33,30.09
0,8,-33,-0.87,-0.15,-0.21,-73.30,-6.29,29.42
0,8,-33,-0.87,-0.15,-0.21,-71.78,-1.16,28.81
0,8,-32,-0.86,-0.17,-0.23,-71.78,-1.16,28.81
0,8,-31,-0.86,-0.16,-0.25,-71.17,2.50,28.32
1,8,-30,-0.83,-0.18,-0.26,-72.69,5.43,26.86
1,8,-27,-0.81,-0.20,-0.26,-75.07,7.57,24.72
1,8,-24,-0.81,-0.20,-0.26,-77.88,8.48,22.71
1,8,-22,-0.80,-0.22,-0.24,-77.88,8.48,22.71
1,8,-20,-0.77,-0.21,-0.21,-81.30,10.13,20.32
1,9,-19,-0.74,-0.23,-0.22,-86.61,11.11,17.64
2,9,-18,-0.73,-0.25,-0.21,-92.83,12.02,14.71
2,9,-18,-0.71,-0.24,-0.20,-98.57,14.16,11.60
2,10,-18,-0.71,-0.24,-0.20,-98.57,14.16,11.60
2,11,-17,-0.70,-0.22,-0.21,-104.37,17.15,8.61
2,12,-17,-0.69,-0.22,-0.23,-109.56,20.02,5.68
3,12,-16,-0.68,-0.23,-0.25,-111.63,22.09,2.87
3,12,-14,-0.68,-0.26,-0.26,-110.96,23.74,0.67
4,13,-12,-0.68,-0.26,-0.26,-109.92,25.21,-0.73
5,13,-9,-0.67,-0.28,-0.26,-109.92,25.21,-0.73
5,13,-6,-0.66,-0.30,-0.25,-110.29,25.45,-1.71
6,13,-4,-0.64,-0.31,-0.25,-110.78,22.71,-2.56
6,13,-3,-0.65,-0.32,-0.26,-109.68,17.15,-2.93
6,13,-2,-0.67,-0.31,-0.26,-107.54,11.90,-3.11
6,13,-1,-0.67,-0.31,-0.26,-107.54,11.90,-3.11
7,14,0,-0.71,-0.31,-0.25,-106.81,9.77,-3.54
7,15,1,-0.73,-0.33,-0.22,-108.46,12.08,-4.70
8,15,2,-0.75,-0.31,-0.20,-111.39,13.31,-6.23
8,15,3,-0.77,-0.28,-0.17,-114.14,12.27,-8.48
9,15,3,-0.77,-0.28,-0.17,-115.97,8.85,-10.68
9,15,4,-0.80,-0.22,-0.15,-115.97,8.85,-10.68
9,15,4,-0.85,-0.15,-0.10,-117.07,6.35,-12.63
9,15,5,-0.87,-0.09,-0.06,-117.74,7.39,-14.53
9,15,6,-0.90,-0.04,-0.03,-120.61,9.64,-16.30
9,15,6,-0.90,-0.02,-0.00,-124.63,10.62,-18.74
9,15,6,-0.90,-0.02,-0.00,-124.63,10.62,-18.74
9,15,6,-0.85,-0.02,0.02,-126.46,10.56,-21.12
9,14,6,-0.78,-0.05,0.02,-124.02,9.77,-22.83
9,14,6,-0.72,-0.13,0.02,-119.08,7.14,-24.41
9,14,6,-0.73,-0.23,-0.03,-114.01,3.30,-25.15
9,14,6,-0.73,-0.23,-0.03,-114.01,3.30,-25.15
9,14,6,-0.84,-0.32,-0.10,-109.13,-0.61,-24.96
9,14,6,-1.12,-0.35,-0.23,-106.51,1.22,-25.02
9,14,6,-1.36,-0.32,-0.38,-106.02,11.41,-25.15
9,14,6,-1.54,-0.17,-0.53,-104.86,26.31,-21.55
9,14,6,-1.54,-0.17,-0.53,-104.86,26.31,-21.55
9,14,6,-1.89,0.04,-0.66,-107.73,34.24,-15.38
9,14,6,-1.71,0.58,-0.76,-117.49,26.31,-15.69
9,14,6,-1.73,0.90,-0.87,-122.31,-3.97,-6.53
9,14,6,-1.58,0.85,-0.60,-104.61,-49.19,4.21
9,14,6,-1.58,0.85,-0.60,-73.55,-104.00,9.83
9,14,6,-1.50,0.55,-0.28,-73.55,-104.00,9.83
9,14,6,-1.65,0.26,-0.07,-47.12,-151.18,13.06
9,14,6,-1.74,0.08,0.09,-36.19,-174.93,12.76
9,14,6,-1.82,0.03,0.19,-38.64,-174.44,10.13
9,14,6,-1.82,0.03,0.19,-38.64,-174.44,10.13
9,14,6,-1.83,0.04,0.25,-42.85,-153.99,6.29
9,14,6,-1.79,0.10,0.27,-50.48,-123.54,0.18
9,14,6,-1.70,0.10,0.30,-53.83,-95.09,-4.21
9,14,6,-1.70,0.10,0.30,-58.84,-71.59,-7.57
9,14,6,-1.58,-0.04,0.32,-58.84,-71.59,-7.57
9,14,6,-1.41,-0.01,0.25,-85.94,-54.93,-12.94
9,14,6,-1.30,0.05,0.12,-112.06,-45.65,-16.42
8,13,6,-1.18,0.07,-0.04,-124.94,-38.15,-16.85
6,13,6,-1.05,0.03,-0.15,-125.37,-30.58,-14.59
5,13,6,-1.05,0.03,-0.15,-125.37,-30.58,-14.59
4,13,6,-0.95,0.00,-0.25,-117.68,-23.56,-10.01
4,13,6,-0.85,0.00,-0.32,-107.30,-18.62,-4.09
3,13,6,-0.80,0.02,-0.36,-93.93,-15.63,2.32
2,13,6,-0.75,0.03,-0.34,-78.00,-10.93,9.22
2,13,6,-0.75,0.03,-0.34,-78.00,-10.93,9.22
1,13,6,-0.71,0.05,-0.33,-66.89,-7.26,14.71
1,13,6,-0.70,0.05,-0.28,-66.53,-5.49,17.27
1,13,6,-0.72,0.07,-0.28,-75.99,-2.99,17.15
1,13,6,-0.76,0.05,-0.36,-91.67,-3.85,15.63
1,13,4,-0.76,0.05,-0.36,-91.67,-3.85,15.63
1,14,2,-0.67,0.11,-0.39,-106.99,-17.70,12.21
0,14,1,-0.64,0.16,-0.43,-122.07,-28.63,8.54
0,14,0,-0.61,0.19,-0.40,-133.67,-30.58,3.54
0,14,-1,-0.54,0.28,-0.38,-146.55,-23.38,-4.15
0,15,-1,-0.54,0.28,-0.38,-146.55,-23.38,-4.15
0,15,-1,-0.54,0.30,-0.42,-159.85,-13.37,-13.55
0,15,-1,-0.63,0.34,-0.43,-168.95,-10.93,-23.19
0,15,-1,-0.70,0.35,-0.41,-173.58,-16.30,-30.46
0,15,-1,-0.78,0.32,-0.37,-171.94,-17.52,-34.06
0,15,-1,-0.78,0.32,-0.37,-162.11,-11.60,-33.33
0,15,-2,-0.84,0.31,-0.30,-162.11,-11.60,-33.33
0,15,-2,-0.89,0.31,-0.21,-144.47,-2.75,-28.99
0,15,-2,-0.89,0.31,-0.12,-123.47,3.78,-24.23
0,15,-2,-0.98,0.27,-0.02,-104.68,6.29,-19.53
0,15,-2,-1.04,0.25,0.04,-86.61,15.26,-14.71
0,15,-2,-1.04,0.25,0.04,-86.61,15.26,-14.71
0,15,-2,-1.08,0.23,0.06,-72.57,28.63,-10.62
0,15,-2,-1.13,0.18,0.07,-68.48,39.18,-8.67
0,15,-2,-1.20,0.14,-0.00,-73.97,48.77,-8.91
-1,15,-2,-1.21,0.11,-0.08,-84.47,58.84,-10.86
-1,15,-2,-1.21,0.11,-0.08,-84.47,58.84,-10.86
-1,15,-2,-1.24,0.08,-0.21,-94.36,70.07,-12.21
-1,15,-2,-1.18,0.06,-0.33,-95.64,82.09,-10.93
-1,15,-2,-1.11,0.12,-0.44,-86.73,86.43,-6.41
-1,15,-2,-1.02,0.15,-0.50,-73.67,77.94,-0.73
-1,15,-2,-1.02,0.15,-0.50,-62.56,62.01,4.76
-1,15,-2,-0.97,0.20,-0.51,-62.56,62.01,4.76
-1,15,-2,-0.93,0.24,-0.46,-50.72,44.01,9.58
-1,15,-2,-0.94,0.24,-0.39,-37.90,26.31,13.43
-1,15,-2,-1.00,0.22,-0.33,-28.81,13.67,15.99
-1,15,-2,-1.00,0.22,-0.33,-21.73,8.12,17.82
-1,15,-3,-1.08,0.15,-0.29,-21.73,8.12,17.82
-2,15,-3,-1.19,0.08,-0.28,-17.33,7.14,18.86
-2,15,-3,-1.33,-0.05,-0.31,-13.12,6.71,20.02
-2,15,-3,-1.37,-0.12,-0.32,-9.34,3.91,21.12
-2,15,-3,-1.37,-0.12,-0.32,-4.03,-2.62,22.71
-2,15,-3,-1.35,-0.18,-0.27,-4.03,-2.62,22.71
-1,15,-3,-1.27,-0.22,-0.18,-0.61,-13.49,25.39
-1,15,-3,-1.20,-0.21,-0.09,-1.65,-29.42,27.71
-1,15,-3,-1.21,-0.20,0.01,-5.49,-50.23,30.09
-1,15,-3,-1.24,-0.25,0.15,-1.77,-64.64,31.37
-1,15,-3,-1.24,-0.25,0.15,0.00,-66.04,31.49
-1,15,-3,-1.26,-0.32,0.25,0.00,-66.04,31.49
-1,15,-3,-1.31,-0.44,0.38,-1.28,-57.37,31.37
-1,15,-3,-1.36,-0.49,0.44,-8.85,-46.26,26.98
-1,14,-3,-1.37,-0.48,0.48,-22.46,-32.90,19.35
-1,14,-3,-1.39,-0.49,0.47,-40.59,-21.79,10.50
-1,14,-3,-1.39,-0.49,0.47,-40.59,-21.79,10.50
0,14,-3,-1.36,-0.41,0.39,-65.92,-18.49,0.24
0,14,-3,-1.52,-0.26,0.15,-89.66,-12.94,-7.39
0,14,-4,-1.44,-0.19,0.11,-97.17,-5.98,-11.05
0,14,-4,-1.39,-0.26,0.02,-96.92,-0.79,-11.84
0,14,-4,-1.39,-0.26,0.02,-96.92,-0.79,-11.84
0,14,-4,-1.31,-0.25,-0.09,-100.46,0.49,-10.74
0,14,-4,-1.23,-0.20,-0.17,-93.02,3.91,-8.73
0,14,-4,-1.14,-0.18,-0.21,-72.14,6.41,-5.43
1,14,-4,-1.11,-0.16,-0.23,-48.65,0.12,-1.71
1,14,-4,-1.09,-0.17,-0.20,-33.63,-6.04,0.85
1,13,-4,-1.09,-0.17,-0.20,-33.63,-6.04,0.85
2,13,-4,-1.06,-0.16,-0.11,-27.59,-7.39,1.34
4,13,-4,-1.00,-0.15,-0.04,-34.73,-6.65,-0.31
4,13,-4,-0.91,-0.14,-0.03,-49.07,-4.39,-3.11
5,13,-4,-0.85,-0.11,-0.06,-59.51,-4.64,-5.62
5,13,-4,-0.80,-0.09,-0.06,-64.21,-9.46,-7.14
5,13,-3,-0.80,-0.09,-0.06,-64.21,-9.46,-7.14
6,12,-3,-0.76,-0.13,-0.03,-64.45,-12.88,-7.69
6,12,-3,-0.71,-0.20,-0.09,-63.96,-10.80,-6.59
6,12,-3,-0.68,-0.17,-0.11,-60.36,-10.13,-3.91
6,12,-3,-0.65,-0.17,-0.11,-58.47,-12.51,-1.83
6,12,-2,-0.67,-0.18,-0.12,-61.46,-16.30,-0.73
6,12,-1,-0.67,-0.18,-0.12,-61.46,-16.30,-0.73
6,12,0,-0.67,-0.18,-0.10,-63.78,-22.89,0.55
6,11,1,-0.66,-0.19,-0.06,-64.09,-26.18,2.26
6,11,1,-0.66,-0.21,-0.03,-62.99,-21.00,3.42
6,11,1,-0.66,-0.13,0.01,-65.61,-12.82,2.44
7,11,1,-0.66,-0.13,0.01,-70.50,-7.81,-0.18
7,11,1,-0.66,-0.06,0.04,-70.50,-7.81,-0.18
7,10,1,-0.67,-0.02,0.05,-74.58,-5.13,-3.23
7,10,1,-0.71,0.00,0.05,-77.58,-2.32,-6.65
7,10,1,-0.74,0.03,0.01,-79.96,2.99,-10.19
7,10,1,-0.74,0.03,0.01,-79.96,2.99,-10.19
7,10,1,-0.76,0.08,-0.05,-79.90,8.91,-12.21
7,10,1,-0.78,0.13,-0.08,-75.62,12.82,-13.79
7,10,1,-0.78,0.13,-0.10,-69.76,15.08,-15.38
7,10,1,-0.80,0.10,-0.12,-64.09,15.63,-16.72
7,10,1,-0.80,0.10,-0.12,-64.09,15.63,-16.72
7,10,1,-0.80,0.06,-0.12,-58.59,13.92,-17.70
6,10,1,-0.82,0.00,-0.13,-52.80,9.58,-17.88
6,10,1,-0.82,-0.02,-0.14,-53.16,5.49,-18.43
6,10,1,-0.83,-0.04,-0.13,-50.84,2.32,-18.19
6,10,1,-0.83,-0.04,-0.13,-50.84,2.32,-18.19
6,10,1,-0.86,-0.08,-0.10,-44.07,-0.98,-17.15
6,9,1,-0.89,-0.10,-0.08,-43.03,-1.28,-17.09
6,9,1,-0.91,-0.12,-0.06,-47.06,2.75,-18.01
6,9,1,-0.92,-0.11,-0.06,-53.22,8.36,-19.35
6,8,1,-0.92,-0.11,-0.06,-53.22,8.36,-19.35
6,8,1,-0.93,-0.11,-0.07,-57.86,12.02,-20.20
6,8,1,-0.96,-0.12,-0.11,-60.61,13.61,-20.45
6,8,1,-1.00,-0.13,-0.16,-62.07,15.26,-20.39
6,8,1,-1.03,-0.14,-0.20,-61.40,17.03,-19.96
6,8,1,-1.03,-0.14,-0.20,-58.29,17.52,-19.35
7,8,2,-1.07,-0.15,-0.24,-58.29,17.52,-19.35
7,8,2,-1.13,-0.18,-0.27,-54.08,15.63,-18.62
7,8,2,-1.19,-0.20,-0.30,-50.35,12.57,-17.76
7,8,2,-1.25,-0.22,-0.33,-47.30,9.03,-17.58
8,8,2,-1.25,-0.22,-0.33,-45.65,5.86,-18.01
8,9,3,-1.27,-0.23,-0.34,-45.65,5.86,-18.01
8,9,4,-1.28,-0.24,-0.34,-45.41,2.08,-18.62
8,9,8,-1.31,-0.24,-0.34,-45.47,-2.56,-19.47
8,9,23,-1.36,-0.24,-0.33,-44.01,-6.77,-20.39
8,10,33,-1.44,-0.24,-0.31,-41.02,-9.46,-20.63
8,10,35,-1.44,-0.24,-0.31,-41.02,-9.46,-20.63
9,10,36,-1.52,-0.24,-0.27,-37.35,-10.68,-20.69
9,10,36,-1.60,-0.21,-0.22,-34.61,-11.23,-20.94
9,10,36,-1.67,-0.17,-0.16,-34.06,-14.59,-22.03
8,10,36,-1.73,-0.09,-0.11,-34.12,-19.35,-23.56
8,10,36,-1.73,-0.09,-0.11,-31.37,-23.74,-25.15
8,10,37,-1.79,-0.01,-0.02,-31.37,-23.74,-25.15
8,10,37,-1.81,0.06,0.04,-30.21,-26.55,-26.92
8,10,37,-1.77,0.13,0.05,-31.43,-26.92,-29.36
8,10,37,-1.72,0.16,0.02,-28.93,-25.94,-31.31
8,10,37,-1.72,0.16,0.02,-22.64,-24.05,-32.29
8,10,37,-1.63,0.19,0.00,-22.64,-24.05,-32.29
8,9,37,-1.48,0.21,0.04,-16.30,-22.71,-32.47
8,9,37,-1.36,0.25,0.11,-12.57,-24.17,-31.86
8,9,37,-1.19,0.26,0.21,-10.86,-27.53,-30.15
8,9,37,-1.19,0.26,0.21,-14.83,-32.65,-28.63
8,9,37,-1.12,0.28,0.28,-14.83,-32.65,-28.63
8,8,37,-1.14,0.28,0.30,-25.02,-40.65,-28.02
8,8,37,-1.13,0.30,0.33,-32.71,-41.44,-27.89
8,8,37,-1.09,0.30,0.39,-32.04,-34.36,-27.34
7,8,37,-1.09,0.30,0.39,-32.04,-34.36,-27.34
7,8,37,-1.07,0.29,0.43,-29.54,-26.25,-26.61
7,8,37,-1.07,0.31,0.46,-29.48,-20.08,-25.51
6,8,37,-1.11,0.32,0.47,-32.41,-11.41,-24.60
6,8,37,-1.11,0.33,0.46,-33.57,-0.73,-23.19
4,8,37,-1.11,0.33,0.46,-33.57,-0.73,-23.19
3,7,37,-1.11,0.31,0.42,-39.37,11.29,-23.01
0,7,37,-1.12,0.31,0.33,-49.62,19.90,-23.50
-3,6,38,-1.14,0.29,0.25,-57.37,26.00,-23.50
-5,6,38,-1.15,0.27,0.19,-61.95,32.23,-22.34
-5,6,38,-1.15,0.27,0.19,-61.95,32.23,-22.34
-6,6,38,-1.13,0.22,0.10,-63.54,35.89,-20.57
-6,6,38,-1.11,0.23,0.02,-61.95,33.14,-17.52
-6,6,38,-1.10,0.25,-0.06,-55.54,26.25,-14.04
-6,6,38,-1.07,0.23,-0.10,-46.63,19.53,-10.68
-6,6,37,-1.07,0.23,-0.10,-46.63,19.53,-10.68
-6,6,37,-1.05,0.21,-0.12,-38.15,15.26,-8.00
-6,6,37,-1.03,0.19,-0.11,-33.94,12.70,-5.92
-7,6,37,-1.03,0.19,-0.07,-31.98,11.17,-4.82
-7,6,37,-1.02,0.14,0.01,-28.32,11.72,-4.15
-7,6,37,-1.02,0.14,0.01,-28.32,11.72,-4.15
-7,5,37,-1.02,0.11,0.07,-28.14,12.94,-4.27
-7,5,37,-1.02,0.10,0.11,-31.37,14.95,-5.25
-7,5,37,-1.00,0.09,0.12,-36.50,18.13,-6.53
-7,5,37,-0.96,0.08,0.10,-42.11,21.85,-7.45
-7,5,37,-0.96,0.08,0.10,-42.11,21.85,-7.45
-7,5,37,-0.93,0.08,0.06,-48.34,24.05,-8.24
-7,5,37,-0.89,0.09,0.01,-53.65,25.27,-9.03
-7,5,37,-0.86,0.10,-0.03,-57.31,26.06,-9.70
-7,5,37,-0.86,0.10,-0.03,-57.25,26.61,-10.19
-7,5,37,-0.79,0.09,-0.06,-57.25,26.61,-10.19
-7,5,37,-0.71,0.09,-0.09,-53.71,26.61,-9.95
-7,5,37,-0.66,0.08,-0.11,-47.85,26.25,-8.79
-7,5,37,-0.61,0.06,-0.11,-41.20,25.63,-7.32
-7,5,37,-0.56,0.05,-0.09,-35.89,26.00,-5.80
-6,5,37,-0.56,0.05,-0.09,-35.89,26.00,-5.80
-6,5,37,-0.51,0.04,-0.07,-31.13,27.59,-4.58
-6,5,37,-0.47,0.05,-0.05,-27.10,28.20,-3.66
-6,5,37,-0.43,0.05,-0.01,-24.29,26.98,-2.99
-6,5,37,-0.40,0.09,0.00,-23.44,25.70,-2.50
-6,5,37,-0.40,0.09,0.00,-23.44,25.70,-2.50
-6,5,37,-0.35,0.05,0.08,-23.62,24.90,-2.99
-6,5,37,-0.34,0.02,0.10,-28.38,26.49,-3.23
-6,5,37,-0.28,0.01,0.08,-34.97,28.63,-3.42
-6,4,37,-0.27,0.05,-0.00,-42.11,28.50,-3.36
-6,4,37,-0.27,0.05,-0.00,-42.11,28.50,-3.36
-6,4,37,-0.21,0.05,-0.03,-42.72,28.08,-3.23
-6,4,37,-0.20,0.07,-0.10,-40.10,26.31,-2.62
-6,4,37,-0.17,0.09,-0.12,-34.67,22.64,-1.46
-6,5,37,-0.16,0.11,-0.14,-26.37,17.33,0.55
-7,5,37,-0.16,0.11,-0.14,-26.37,17.33,0.55
-7,5,37,-0.21,0.10,-0.13,-17.52,12.21,2.75
-7,5,37,-0.28,0.06,-0.11,-10.31,7.14,3.97
-7,5,37,-0.35,0.03,-0.09,-6.23,2.62,4.64
-7,5,37,-0.35,0.03,-0.09,-5.37,-0.24,4.82
-7,5,37,-0.45,0.02,-0.07,-5.37,-0.24,4.82
-7,5,37,-0.57,-0.00,-0.06,-5.74,-2.01,4.27
-7,5,37,-0.71,-0.03,-0.04,-7.81,-3.48,3.36
-7,5,37,-0.83,-0.03,-0.02,-12.45,-5.74,2.20
-7,5,37,-1.03,0.02,-0.03,-20.14,-9.46,1.16
-7,5,37,-1.03,0.02,-0.03,-20.14,-9.46,1.16
-7,5,37,-1.17,0.09,-0.02,-28.26,-10.56,0.55
-7,5,37,-1.33,0.16,0.00,-36.50,-8.42,0.79
-6,5,37,-1.48,0.21,-0.04,-44.74,-6.65,1.65
-7,5,37,-1.65,0.23,-0.11,-49.13,-5.19,2.50
-7,4,37,-1.65,0.23,-0.11,-49.13,-5.19,2.50
-7,4,37,-1.84,0.26,-0.19,-47.30,-4.03,4.15
-7,5,37,-2.01,0.29,-0.23,-40.71,-3.17,6.59
-7,5,36,-2.11,0.27,-0.24,-32.59,-2.75,6.90
-7,5,36,-2.30,0.13,-0.22,-25.63,-3.48,6.90
-6,5,36,-2.30,0.13,-0.22,-25.63,-3.48,6.90
-6,5,36,-2.47,0.16,-0.21,-18.13,1.40,8.42
-6,5,36,-2.52,0.19,-0.21,-7.32,15.75,9.40
-6,5,36,-2.61,0.24,-0.19,-0.73,22.64,9.77
-6,5,35,-2.61,0.24,-0.19,3.72,29.54,9.34
-6,4,35,-2.64,0.24,-0.19,3.72,29.54,9.34
-6,4,35,-2.59,0.19,-0.20,7.69,43.03,8.85
-6,4,34,-2.56,0.08,-0.21,14.71,56.03,8.91
-6,4,34,-2.50,-0.06,-0.17,24.05,66.35,8.85
-5,4,34,-2.50,-0.06,-0.17,24.05,66.35,8.85
-5,4,34,-2.39,-0.15,-0.05,30.15,71.66,10.13
-5,4,34,-2.18,-0.09,0.12,21.97,68.48,10.68
-5,4,34,-1.95,0.03,0.30,2.38,59.45,7.57
-5,4,34,-1.95,0.03,0.30,-16.85,54.57,2.20
-5,4,34,-1.68,0.17,0.46,-16.85,54.57,2.20
-5,4,34,-1.33,0.27,0.49,-31.74,50.84,-3.42
-5,4,34,-1.02,0.40,0.48,-32.53,37.84,-7.26
-5,4,34,-0.91,0.44,0.38,-13.73,17.21,-8.00
-5,4,34,-0.91,0.44,0.38,-13.73,17.21,-8.00
-5,4,34,-0.78,0.41,0.34,8.48,12.39,-6.96
-5,4,34,-0.63,0.40,0.27,15.63,19.10,-6.16
-5,4,34,-0.52,0.38,0.21,14.95,20.63,-5.31
-5,4,34,-0.40,0.36,0.18,13.12,23.86,-3.66
-5,3,34,-0.40,0.36,0.18,13.12,23.86,-3.66
-5,3,34,-0.34,0.30,0.23,15.56,26.43,-0.98
-5,3,34,-0.35,0.25,0.33,22.22,21.73,3.85
-5,3,34,-0.44,0.21,0.45,28.81,15.75,8.97
-5,3,34,-0.44,0.21,0.45,28.81,15.75,8.97
-6,3,34,-0.51,0.15,0.61,30.03,11.72,12.08
-6,3,34,-0.61,0.18,0.74,25.51,9.58,13.92
-6,3,34,-0.68,0.18,0.77,20.87,10.19,15.01
-6,3,34,-0.68,0.18,0.77,18.31,12.15,16.05
-6,3,34,-0.70,0.19,0.71,18.31,12.15,16.05
-6,3,35,-0.70,0.17,0.62,16.30,9.09,17.21
-6,2,35,-0.72,0.16,0.51,12.27,-0.24,18.07
-6,2,35,-0.72,0.16,0.51,9.77,-9.58,19.53
-6,2,35,-0.73,0.16,0.42,9.77,-9.58,19.53
-6,2,37,-0.76,0.15,0.35,11.41,-17.76,22.71
-6,2,38,-0.79,0.13,0.32,14.77,-26.67,26.43
-6,2,39,-0.85,0.15,0.31,17.88,-34.97,30.03
-6,2,40,-0.85,0.15,0.31,17.88,-34.97,30.03
-6,2,40,-0.85,0.14,0.33,23.74,-39.12,33.33
-6,2,41,-0.91,0.12,0.32,31.98,-41.02,36.62
-6,2,42,-0.93,0.13,0.30,36.68,-39.98,37.54
-6,2,44,-0.96,0.09,0.29,42.66,-38.15,36.80
-6,2,45,-0.96,0.09,0.29,42.66,-38.15,36.80
-6,1,47,-0.98,0.09,0.25,47.49,-34.48,34.36
-6,1,48,-0.96,0.05,0.22,51.39,-30.15,29.79
-6,1,49,-0.97,0.02,0.18,54.75,-25.70,24.48
-6,1,49,-0.97,0.02,0.18,54.75,-25.70,24.48
-6,1,49,-1.05,-0.04,0.11,56.76,-18.98,19.59
-6,1,49,-1.01,-0.19,0.11,60.06,-14.83,16.97
-6,1,49,-1.05,-0.25,0.02,59.81,-15.69,17.76
-6,1,49,-1.05,-0.24,-0.05,60.00,-16.54,20.14
-6,1,49,-1.05,-0.24,-0.05,60.00,-16.54,20.14
-6,1,49,-0.96,-0.23,-0.02,59.81,-14.71,21.42
-6,1,49,-0.98,-0.21,-0.04,58.41,-15.93,21.24
-6,1,49,-0.89,-0.19,-0.01,55.42,-16.54,20.08
-6,1,49,-0.86,-0.18,0.03,51.33,-13.24,16.24
-5,1,49,-0.86,-0.18,0.03,51.33,-13.24,16.24
-5,1,48,-0.78,-0.17,0.07,47.79,-7.32,12.70
-4,0,48,-0.69,-0.19,0.10,41.20,-3.42,8.24
-2,0,48,-0.59,-0.22,0.13,32.78,-1.40,4.52
-2,0,48,-0.59,-0.22,0.13,20.08,4.82,1.71
-2,0,48,-0.44,-0.25,0.11,20.08,4.82,1.71
-2,0,48,-0.40,-0.22,0.07,7.69,10.93,1.34
-1,0,48,-0.26,-0.18,0.07,0.12,18.80,0.24
-1,0,47,-0.12,-0.18,0.06,-6.84,25.02,-0.61
-1,0,47,-0.12,-0.18,0.06,-6.84,25.02,-0.61
-1,0,46,-0.07,-0.16,0.00,-16.42,22.64,0.31
-1,0,46,0.02,-0.16,-0.06,-30.52,18.31,1.83
-1,0,46,-0.01,-0.07,-0.08,-37.11,16.11,5.13
-1,0,46,-0.07,-0.04,-0.09,-32.17,19.17,10.01
-1,0,46,-0.07,-0.04,-0.09,-32.17,19.17,10.01
-1,0,46,-0.07,-0.03,-0.06,-25.21,21.67,13.67
-1,0,46,-0.10,-0.02,-0.05,-25.70,23.01,14.71
-1,0,46,-0.11,-0.03,0.01,-26.43,22.83,16.05
-1,0,46,-0.12,-0.06,0.07,-24.17,26.25,18.07
-1,0,46,-0.12,-0.06,0.07,-24.17,26.25,18.07
-1,0,46,-0.17,-0.05,0.10,-25.39,32.41,20.69
-1,0,46,-0.19,0.00,0.08,-28.63,39.49,21.12
-1,0,46,-0.26,0.05,-0.03,-27.89,42.79,20.26
-1,0,46,-0.28,0.08,-0.10,-17.27,39.43,18.13
-1,0,46,-0.28,0.08,-0.10,-17.27,39.43,18.13
-1,0,46,-0.29,0.05,-0.10,-3.78,38.57,17.27
-1,0,46,-0.30,0.04,-0.06,6.77,40.28,18.01
-1,0,46,-0.35,0.05,-0.05,11.11,39.79,19.04
-1,0,46,-0.42,0.08,-0.06,13.00,37.90,20.08
-1,0,46,-0.42,0.08,-0.06,13.00,37.90,20.08
-1,0,46,-0.62,0.08,-0.10,14.40,32.04,21.67
-1,0,46,-0.88,0.05,-0.20,15.56,20.57,20.51
-1,0,46,-1.17,-0.03,-0.27,20.20,10.74,14.71
-1,0,46,-1.17,-0.03,-0.27,21.36,-1.46,6.16
-1,1,46,-1.44,-0.13,-0.31,21.36,-1.46,6.16
-1,1,46,-1.54,-0.28,-0.27,21.48,-16.72,-3.60
-1,2,46,-1.37,-0.21,-0.15,16.48,-34.55,-10.74
-1,2,46,-2.08,-0.47,-0.46,-1.16,-44.19,-3.78
-1,3,46,-2.82,-0.81,-0.38,8.30,-36.74,-11.29
-1,3,46,-2.82,-0.81,-0.38,8.30,-36.74,-11.29
-1,3,46,-3.27,-1.31,0.24,15.26,-57.19,-45.23
-1,3,46,-4.00,-2.08,0.96,-35.77,-83.01,-65.49
-1,3,46,-3.71,-1.87,0.79,-117.61,-77.33,-76.17
-1,3,46,-3.38,-1.06,0.28,-161.25,-66.96,-75.44
-1,3,46,-2.71,-0.40,0.18,-154.72,-44.62,-71.41
-1,3,46,-2.71,-0.40,0.18,-154.72,-44.62,-71.41
0,3,46,-2.15,-0.04,0.14,-106.51,-15.01,-67.99
0,3,46,-1.94,0.27,0.12,-57.62,-1.34,-68.60
0,3,45,-1.93,0.25,0.15,-29.60,-14.16,-76.48
0,3,45,-2.02,0.19,0.18,-28.02,-23.56,-86.24
-1,2,45,-2.02,0.19,0.18,-28.02,-23.56,-86.24
-1,2,45,-1.71,0.13,0.42,-20.20,-12.63,-90.52
-1,2,45,-1.35,0.23,0.61,-7.02,-0.31,-83.25
-1,2,45,-1.10,0.40,0.63,-0.31,5.55,-75.26
-1,1,45,-0.94,0.45,0.58,7.08,9.70,-72.51
-1,1,45,-0.94,0.45,0.58,14.40,18.68,-73.36
-1,1,45,-0.74,0.38,0.48,14.40,18.68,-73.36
-1,1,45,-0.54,0.34,0.38,17.27,28.02,-73.24
-1,1,46,-0.49,0.20,0.34,17.88,36.93,-70.01
-1,1,46,-0.53,0.22,0.25,8.97,49.87,-69.82
-1,1,46,-0.53,0.22,0.25,8.97,49.87,-69.82
-1,1,46,-0.44,0.29,0.24,-14.10,57.80,-71.35
-1,1,46,-0.55,0.35,0.27,-38.94,50.17,-72.81
-2,0,46,-0.51,0.55,0.29,-71.11,41.38,-74.10
-2,-1,45,-0.49,0.72,0.16,-108.95,23.80,-75.62
-2,-1,45,-0.49,0.72,0.16,-108.95,23.80,-75.62
-2,-1,45,-0.58,0.96,0.02,-140.20,-1.40,-77.64
-2,-1,45,-0.58,0.85,-0.00,-121.40,-12.82,-76.11
-2,-1,45,-0.54,0.59,0.08,-87.52,-10.38,-68.36
-2,-1,45,-0.53,0.47,0.09,-63.11,-12.94,-55.54
-2,-1,45,-0.53,0.47,0.09,-43.09,-22.95,-43.64
-3,-1,45,-0.69,0.43,0.08,-43.09,-22.95,-43.64
-3,-1,45,-0.79,0.34,0.05,-20.87,-20.87,-33.75
-3,-1,45,-0.83,0.26,0.09,-0.79,-6.29,-24.72
-3,-1,44,-0.93,0.29,0.16,18.68,9.22,-15.87
-3,-1,44,-1.04,0.22,0.23,28.75,16.11,-8.36
-3,-2,44,-1.04,0.22,0.23,28.75,16.11,-8.36
-3,-2,44,-1.17,0.17,0.28,28.44,19.41,-3.78
-3,-3,44,-1.31,0.19,0.29,19.59,24.66,-0.12
-3,-3,44,-1.40,0.23,0.31,5.07,33.57,3.36
-3,-3,44,-1.47,0.27,0.26,-15.08,41.63,7.02
-3,-3,44,-1.47,0.27,0.26,-15.08,41.63,7.02
-3,-3,44,-1.55,0.36,0.14,-34.42,45.47,12.70
-3,-3,44,-1.59,0.45,0.02,-46.51,45.17,20.02
-4,-3,44,-1.64,0.51,-0.08,-55.05,38.39,26.55
-4,-3,44,-1.64,0.51,-0.08,-68.54,25.88,32.04
-4,-3,44,-1.74,0.53,-0.18,-68.54,25.88,32.04
-5,-3,44,-1.77,0.48,-0.31,-83.74,9.09,37.29
-5,-3,44,-1.87,0.65,-0.43,-91.13,-3.66,44.25
-5,-3,44,-1.94,0.81,-0.28,-79.16,-7.14,50.05
-6,-3,44,-1.93,0.76,-0.06,-49.99,-8.54,56.64
-6,-3,44,-1.93,0.76,-0.06,-49.99,-8.54,56.64
-6,-3,44,-1.98,0.64,0.02,-46.63,-33.75,62.99
-7,-3,43,-2.01,0.62,-0.03,-53.89,-56.09,67.75
-8,-3,43,-1.90,0.57,-0.00,-51.94,-51.45,72.14
-8,-3,43,-1.65,0.52,0.05,-36.44,-34.12,77.09
-9,-3,43,-1.45,0.47,0.06,-16.05,-20.20,81.54
-9,-3,43,-1.45,0.47,0.06,-16.05,-20.20,81.54
-10,-3,43,-1.31,0.44,0.07,-0.37,-14.71,83.98
-11,-3,43,-1.11,0.41,0.13,22.95,-9.28,86.91
-11,-3,42,-0.92,0.36,0.20,49.01,-2.26,88.93
-12,-3,42,-0.77,0.26,0.20,63.84,2.14,88.07
-13,-3,42,-0.77,0.26,0.20,63.84,2.14,88.07
-13,-3,42,-0.64,0.16,0.17,61.58,3.11,84.05
-14,-3,42,-0.47,0.09,0.16,52.49,5.43,78.37
-13,-3,42,-0.29,0.03,0.16,40.59,10.68,74.71
-13,-3,42,-0.29,0.03,0.16,26.06,14.59,74.16
-13,-4,42,-0.31,-0.02,0.10,26.06,14.59,74.16
-13,-4,42,-0.24,-0.02,0.07,18.01,19.90,72.69
-13,-4,42,-0.24,-0.03,0.03,15.93,20.26,72.51
-13,-4,42,-0.26,-0.02,0.01,11.54,19.90,71.78
-13,-4,42,-0.26,-0.02,0.01,11.54,19.90,71.78
-13,-4,42,-0.23,0.01,0.03,7.51,24.84,69.52
-13,-4,42,-0.17,0.01,0.07,2.01,36.25,66.16
-13,-4,42,-0.10,0.08,0.09,-7.08,47.61,61.95
-13,-4,42,-0.10,0.08,0.09,-21.12,53.16,55.60
-13,-4,42,-0.03,0.20,0.13,-21.12,53.16,55.60
-13,-4,42,0.06,0.25,0.16,-31.92,58.17,49.68
-13,-4,42,0.13,0.32,0.13,-41.38,59.69,44.98
-13,-4,42,0.14,0.39,0.06,-42.18,54.99,44.01
-13,-4,42,0.14,0.39,0.06,-24.90,48.52,45.96
-13,-4,42,0.15,0.44,-0.03,-24.90,48.52,45.96
-13,-4,42,0.20,0.44,-0.05,-2.20,44.37,48.34
-13,-4,42,0.10,0.37,-0.17,21.67,39.61,51.33
-13,-4,42,0.08,0.22,-0.13,41.14,34.67,56.58
-13,-4,42,0.08,0.22,-0.13,54.99,22.16,61.77
-13,-4,42,0.04,0.13,-0.10,54.99,22.16,61.77
-13,-4,42,-0.02,0.12,0.00,63.23,-3.11,67.81
-13,-4,42,-0.37,-0.05,0.07,69.58,-35.22,72.81
-13,-4,42,-0.80,-0.31,0.20,73.18,-62.93,74.89
-13,-4,41,-0.80,-0.31,0.20,75.93,-74.77,69.58
-13,-4,41,-1.22,-0.49,0.72,75.93,-74.77,69.58
-13,-4,41,-1.59,-0.78,1.14,60.55,-55.66,57.37
-13,-4,40,-1.82,-0.74,0.64,16.11,-21.00,38.88
-13,-4,40,-1.80,-0.63,0.21,-0.61,16.42,18.86
-13,-4,39,-1.80,-0.63,0.21,21.18,43.09,4.88
-13,-4,39,-1.56,-0.68,0.21,21.18,43.09,4.88
-13,-4,39,-1.50,-0.84,0.30,32.47,38.02,4.46
-13,-4,39,-1.56,-0.44,0.21,17.52,18.01,8.24
-13,-4,39,-1.30,0.23,0.05,12.02,11.66,8.91
-13,-4,38,-1.30,0.23,0.05,12.02,11.66,8.91
-13,-4,38,-1.29,0.25,-0.02,26.67,-14.34,14.71
-13,-4,38,-1.58,0.04,-0.01,36.93,-42.05,19.53
-13,-4,38,-1.67,-0.28,0.13,42.97,-42.85,18.25
-13,-4,38,-1.65,-0.46,0.20,40.10,-37.17,10.99
-13,-4,38,-1.65,-0.46,0.20,32.96,-44.74,5.31
-13,-4,37,-1.73,-0.42,0.10,32.96,-44.74,5.31
-13,-4,37,-1.84,-0.38,0.03,29.60,-51.88,2.20
-12,-4,37,-1.94,-0.33,0.00,34.00,-53.47,-0.73
-12,-4,36,-1.96,-0.43,-0.07,36.99,-57.37,-4.58
-12,-4,36,-1.96,-0.38,-0.06,43.52,-60.85,-4.15
-12,-3,36,-1.96,-0.38,-0.06,43.52,-60.85,-4.15
-12,-3,36,-2.01,-0.43,0.07,53.22,-67.32,-5.98
-10,-3,36,-1.92,-0.42,0.19,58.65,-69.58,-5.92
-7,-3,36,-1.73,-0.46,0.34,77.21,-57.01,-8.67
-6,-3,35,-1.54,-0.53,0.28,79.35,-48.22,-15.26
-5,-3,35,-1.54,-0.53,0.28,60.06,-44.98,-21.79
-4,-4,35,-1.31,-0.50,0.25,60.06,-44.98,-21.79
-4,-4,35,-1.07,-0.40,0.21,42.66,-36.87,-25.33
-4,-4,35,-0.91,-0.30,0.17,31.43,-24.72,-25.57
-4,-4,35,-0.76,-0.18,0.14,24.84,-14.34,-26.37
-3,-4,34,-0.56,-0.12,0.15,19.47,-8.06,-28.20
-3,-4,34,-0.56,-0.12,0.15,19.47,-8.06,-28.20
-3,-4,33,-0.44,-0.11,0.15,16.66,-1.34,-31.37
-2,-5,33,-0.32,-0.10,0.14,11.60,4.46,-33.20
-2,-5,33,-0.21,-0.05,0.10,8.48,10.86,-34.97
-2,-5,32,-0.12,-0.03,0.05,9.83,22.71,-36.32
-2,-5,32,-0.12,-0.03,0.05,15.20,38.33,-37.84
-1,-5,32,-0.06,-0.01,0.02,15.20,38.33,-37.84
-1,-5,31,-0.01,-0.00,0.03,19.04,53.34,-39.79
-1,-5,31,0.02,-0.05,0.04,20.87,62.74,-42.66
-1,-5,30,0.03,-0.12,0.06,17.52,65.86,-45.23
-1,-5,30,0.03,-0.12,0.06,7.26,67.14,-46.51
-1,-5,29,0.04,-0.14,0.09,7.26,67.14,-46.51
-1,-5,29,0.05,-0.14,0.05,-11.84,63.54,-46.69
-1,-5,29,0.03,-0.14,0.03,-31.01,54.50,-46.33
-1,-5,29,-0.00,-0.13,0.02,-38.57,45.47,-45.47
-1,-5,29,-0.07,-0.13,-0.02,-41.08,35.77,-42.97
-1,-5,29,-0.07,-0.13,-0.02,-41.08,35.77,-42.97
-1,-5,29,-0.10,-0.13,-0.04,-43.88,25.82,-41.93
-1,-5,29,-0.11,-0.13,-0.05,-46.94,15.87,-41.14
-1,-5,29,-0.13,-0.13,-0.05,-50.05,8.67,-40.77
-1,-5,29,-0.25,-0.13,-0.05,-53.10,4.33,-40.71
-1,-5,29,-0.65,-0.16,-0.10,-56.52,4.21,-42.97
-1,-5,29,-0.65,-0.16,-0.10,-56.52,4.21,-42.97
-1,-5,29,-1.30,-0.34,-0.27,-59.63,8.91,-49.87
-1,-5,29,-2.18,-0.32,-0.52,-69.40,18.68,-53.59
-1,-5,29,-2.57,-0.24,-0.47,-104.80,37.72,-48.40
-1,-5,29,-1.96,0.26,0.05,-181.34,30.40,-52.98
-1,-5,29,-2.06,0.65,0.37,-256.16,-61.71,-40.41
-1,-5,29,-2.06,0.65,0.37,-256.16,-61.71,-40.41
-1,-5,29,-2.03,1.31,0.31,-285.34,-115.30,-35.77
-1,-5,29,-2.04,1.63,0.31,-225.28,-86.36,-15.20
-1,-5,29,-2.22,1.09,0.69,-75.01,-53.53,6.29
-1,-5,29,-2.49,0.60,0.84,10.62,-88.20,12.45
-1,-5,29,-2.49,0.60,0.84,10.62,-88.20,12.45
-1,-5,29,-2.67,0.24,0.71,-0.37,-80.63,9.09
-1,-5,29,-2.63,0.10,0.53,-33.51,-14.16,3.11
-1,-5,29,-2.26,0.26,0.39,-80.63,45.41,-0.37
-1,-5,29,-2.06,0.20,0.24,-114.62,73.61,5.37
-1,-5,29,-2.06,0.20,0.24,-134.28,70.13,18.49
-1,-5,29,-1.86,0.40,-0.10,-134.28,70.13,18.49
-1,-5,29,-1.84,0.66,-0.38,-135.80,48.16,31.86
-1,-5,29,-1.71,0.60,-0.53,-101.20,40.53,46.45
-1,-5,29,-1.41,0.49,-0.64,-56.34,32.59,61.89
-1,-5,29,-1.41,0.49,-0.64,-12.33,7.08,76.90
-1,-5,29,-1.25,0.26,-0.57,-12.33,7.08,76.90
-1,-5,29,-1.17,0.25,-0.47,21.48,-13.24,91.49
-2,-5,29,-1.04,0.22,-0.29,47.36,-18.74,100.22
-2,-5,29,-0.93,0.17,-0.16,69.64,-16.72,103.33
-2,-5,29,-0.78,0.14,-0.03,85.21,-15.08,101.68
-2,-5,29,-0.78,0.14,-0.03,85.21,-15.08,101.68
-2,-5,29,-0.58,0.04,0.06,95.95,-18.43,98.08
-2,-5,29,-0.51,-0.05,0.10,93.69,-27.89,94.12
-2,-5,29,-0.42,-0.10,0.16,76.54,-38.09,86.06
-2,-5,29,-0.32,-0.13,0.21,54.38,-41.26,76.17
-2,-5,29,-0.32,-0.13,0.21,54.38,-41.26,76.17
-2,-5,29,-0.24,-0.21,0.22,31.98,-39.86,67.87
-2,-5,29,-0.24,-0.24,0.18,3.91,-35.34,59.94
-2,-5,28,-0.24,-0.17,0.16,-22.52,-30.64,50.60
-2,-5,28,-0.25,-0.08,0.14,-41.50,-21.42,43.46
-2,-5,28,-0.23,-0.03,0.14,-51.70,-6.23,37.66
-2,-5,28,-0.23,-0.03,0.14,-51.70,-6.23,37.66
-2,-5,28,-0.17,0.03,0.19,-57.98,11.72,31.37
-2,-5,28,-0.13,0.05,0.22,-64.39,26.67,25.57
-2,-6,28,-0.09,0.05,0.24,-68.42,35.77,21.24
-2,-6,28,-0.04,0.07,0.28,-71.41,39.98,18.01
-2,-6,28,-0.04,0.07,0.28,-71.41,39.98,18.01
-2,-6,28,-0.01,0.09,0.33,-73.55,36.80,16.24
-2,-6,28,-0.01,0.14,0.34,-78.80,26.67,14.47
-2,-6,28,-0.02,0.18,0.29,-86.55,15.75,13.79
-2,-6,28,-0.02,0.18,0.23,-88.75,7.02,13.67
-2,-6,28,-0.02,0.18,0.23,-88.75,7.02,13.67
-2,-6,28,-0.03,0.18,0.14,-87.59,0.49,13.73
-2,-6,28,-0.09,0.17,0.04,-82.58,-3.23,15.01
-2,-6,28,-0.12,0.22,0.00,-71.90,-3.30,16.48
-2,-6,28,-0.14,0.25,0.00,-58.59,-3.36,16.97
-2,-6,28,-0.14,0.25,0.00,-58.59,-3.36,16.97
-3,-6,28,-0.15,0.27,0.04,-45.53,-4.52,18.37
-3,-6,28,-0.30,0.26,-0.01,-34.61,-10.25,21.79
-3,-6,28,-0.63,0.16,-0.13,-27.77,-23.38,24.48
-3,-6,28,-1.06,-0.05,-0.24,-20.20,-34.12,25.33
-3,-6,28,-1.06,-0.05,-0.24,-12.88,-36.38,25.63
-3,-6,28,-1.38,-0.32,-0.24,-12.88,-36.38,25.63
-3,-6,28,-1.58,-0.61,-0.04,-12.27,-37.54,27.04
-3,-6,28,-1.84,-0.72,0.06,-25.45,-53.71,27.28
-3,-6,28,-2.05,-0.76,0.36,-39.73,-67.44,20.87
-3,-6,28,-1.74,-0.45,0.64,-59.27,-73.12,3.36
-3,-6,28,-1.74,-0.45,0.64,-59.27,-73.12,3.36
-3,-6,28,-1.73,-0.07,0.50,-73.97,-86.00,-5.86
-3,-6,28,-1.41,0.54,0.48,-50.11,-112.24,-14.65
-3,-6,28,-1.38,1.03,0.24,-31.31,-138.00,-19.23
-3,-6,28,-1.60,0.54,0.16,-1.40,-112.06,-15.20
-3,-6,28,-1.39,0.14,-0.01,23.07,-80.93,-3.72
-3,-6,28,-1.39,0.14,-0.01,23.07,-80.93,-3.72
-3,-6,28,-1.35,-0.10,-0.11,47.18,-65.12,8.67
-3,-6,28,-1.34,-0.24,-0.08,54.26,-59.51,15.14
-3,-6,28,-1.38,-0.35,-0.08,29.24,-57.25,15.26
-3,-6,28,-1.34,-0.33,0.11,22.16,-43.46,17.15
-3,-6,28,-1.34,-0.33,0.11,14.34,-19.10,16.66
-3,-6,27,-1.19,-0.27,0.14,14.34,-19.10,16.66
-3,-6,27,-1.19,-0.13,-0.03,-7.39,-12.45,11.66
-3,-6,27,-1.13,0.00,-0.18,-17.15,-23.01,9.28
-3,-5,27,-1.09,0.07,-0.29,-4.82,-32.35,11.35
-3,-5,27,-1.02,0.02,-0.35,20.81,-34.67,16.54
-3,-5,27,-1.02,0.02,-0.35,20.81,-34.67,16.54
-3,-5,27,-0.93,-0.10,-0.33,44.92,-35.46,22.77
-2,-5,27,-0.82,-0.08,-0.27,61.10,-37.48,27.40
-2,-5,27,-0.75,-0.18,-0.23,65.19,-38.88,29.60
-2,-5,27,-0.67,-0.19,-0.23,48.10,-40.22,27.65
-2,-5,27,-0.67,-0.19,-0.23,27.89,-41.26,24.60
-2,-4,27,-0.57,-0.17,-0.20,27.89,-41.26,24.60
-2,-4,27,-0.55,-0.16,-0.20,16.60,-41.87,23.80
-2,-1,27,-0.57,-0.11,-0.17,11.47,-40.04,24.23
-2,2,27,-0.53,-0.13,-0.10,16.17,-35.03,25.70
-1,2,27,-0.47,-0.11,-0.07,14.59,-29.79,25.15
-1,2,27,-0.47,-0.11,-0.07,14.59,-29.79,25.15
0,2,27,-0.44,-0.11,-0.05,5.37,-25.21,22.83
2,2,27,-0.39,-0.14,-0.04,-6.53,-20.14,20.26
3,3,27,-0.36,-0.12,-0.04,-17.58,-16.60,17.70
4,3,27,-0.36,-0.11,-0.04,-27.10,-13.67,14.77
5,3,27,-0.36,-0.11,-0.04,-27.10,-13.67,14.77
6,3,27,-0.34,-0.11,-0.03,-30.70,-9.64,12.57
6,3,27,-0.30,-0.16,-0.02,-33.20,-6.77,11.05
7,3,27,-0.22,-0.14,-0.02,-37.84,-1.83,9.09
7,3,27,-0.28,-0.17,-0.06,-43.40,2.01,8.00
7,4,26,-0.28,-0.17,-0.06,-50.48,4.15,4.58
7,4,26,-0.27,-0.08,-0.03,-50.48,4.15,4.58
7,4,25,-0.18,-0.02,0.00,-48.83,14.53,1.40
7,4,25,-0.15,-0.13,-0.02,-43.52,19.90,-0.92
7,4,24,-0.16,-0.23,-0.10,-48.95,24.35,-3.54
7,4,24,-0.16,-0.23,-0.10,-55.36,26.73,-5.07
7,5,24,-0.19,-0.28,-0.13,-55.36,26.73,-5.07
8,5,24,-0.22,-0.28,-0.18,-60.12,27.16,-5.86
8,5,24,-0.23,-0.27,-0.21,-62.32,28.81,-6.04
8,5,24,-0.29,-0.26,-0.23,-61.34,29.91,-5.55
8,5,24,-0.29,-0.26,-0.23,-61.10,30.76,-6.16
8,5,25,-0.39,-0.27,-0.27,-61.10,30.76,-6.16
8,5,25,-0.51,-0.31,-0.34,-65.55,35.46,-9.52
8,5,25,-0.69,-0.36,-0.42,-71.78,43.15,-13.92
8,5,25,-0.88,-0.44,-0.50,-77.15,52.43,-18.74
8,5,25,-1.00,-0.46,-0.56,-86.98,60.61,-23.19
8,6,25,-1.00,-0.46,-0.56,-86.98,60.61,-23.19
8,6,26,-1.12,-0.46,-0.57,-95.89,61.28,-26.86
8,6,26,-1.32,-0.41,-0.55,-106.75,47.97,-29.36
8,6,27,-1.73,-0.29,-0.62,-120.48,24.11,-30.76
8,6,27,-2.15,-0.11,-0.56,-130.13,-4.03,-38.76
8,6,28,-2.15,-0.11,-0.56,-130.13,-4.03,-38.76
8,6,28,-2.28,0.31,-0.42,-150.76,-30.82,-52.19
8,6,27,-2.55,0.76,-0.20,-164.92,-41.14,-52.67
8,6,27,-2.15,1.01,0.40,-161.50,-52.12,-58.17
8,6,27,-1.94,1.01,0.58,-156.01,-82.09,-63.35
8,6,27,-1.94,1.01,0.58,-133.24,-110.35,-60.24
8,6,27,-2.03,0.52,0.50,-133.24,-110.35,-60.24
8,6,27,-1.97,0.08,0.44,-100.10,-102.60,-59.20
8,6,27,-1.88,-0.05,0.31,-81.54,-73.91,-55.66
8,6,27,-1.90,0.03,0.14,-79.41,-45.04,-49.26
8,6,28,-1.90,0.03,0.14,-79.41,-45.04,-49.26
8,6,28,-1.91,0.01,0.13,-79.41,-19.23,-44.49
8,6,28,-1.85,0.06,0.17,-85.51,2.38,-41.44
8,6,28,-1.79,0.09,0.17,-98.82,15.56,-39.25
8,6,28,-1.68,0.11,0.08,-114.32,25.02,-37.66
8,6,28,-1.68,0.11,0.08,-114.32,25.02,-37.66
8,6,28,-1.50,0.06,-0.01,-122.50,29.60,-34.12
6,6,28,-1.37,0.07,-0.18,-122.86,23.86,-27.77
5,6,28,-1.17,0.01,-0.18,-110.11,15.38,-21.42
4,6,28,-1.12,0.01,-0.21,-89.29,11.72,-14.16
3,6,28,-1.12,0.01,-0.21,-89.29,11.72,-14.16
3,6,28,-1.02,0.06,-0.18,-72.45,9.77,-11.54
2,6,28,-0.87,0.03,-0.16,-64.09,4.52,-12.45
2,6,28,-0.74,-0.04,-0.13,-64.15,1.71,-14.34
2,6,28,-0.62,-0.14,-0.13,-62.93,5.74,-13.18
2,6,28,-0.62,-0.14,-0.13,-62.93,5.74,-13.18
2,6,28,-0.56,-0.13,-0.11,-57.86,14.95,-9.34
2,6,28,-0.46,-0.07,-0.10,-56.03,18.74,-6.47
2,7,28,-0.54,-0.07,-0.14,-53.83,13.73,-2.32
2,8,28,-0.44,0.01,-0.08,-47.61,19.04,-5.07
2,8,28,-0.44,0.01,-0.08,-47.61,19.04,-5.07
2,8,28,-0.44,0.01,-0.01,-41.20,29.36,-6.04
2,8,27,-0.39,0.03,-0.01,-45.59,42.36,-8.00
2,8,27,-0.35,-0.03,0.02,-59.51,47.85,-11.41
2,8,27,-0.29,-0.06,0.02,-76.17,52.19,-13.92
2,8,27,-0.29,-0.06,0.02,-76.17,52.19,-13.92
2,8,27,-0.26,-0.03,0.00,-96.50,56.40,-15.75
2,8,27,-0.26,-0.02,-0.01,-115.48,58.96,-17.88
2,8,27,-0.27,-0.01,-0.04,-129.39,59.14,-19.78
2,8,27,-0.28,-0.01,-0.07,-141.30,56.76,-20.57
2,8,27,-0.28,-0.01,-0.07,-141.30,56.76,-20.57
2,8,27,-0.35,-0.01,-0.14,-154.30,56.34,-20.14
2,8,27,-0.43,0.04,-0.23,-166.14,59.69,-18.62
2,8,27,-0.51,0.10,-0.35,-173.34,67.02,-15.75
2,8,27,-0.63,0.12,-0.55,-181.40,75.01,-12.33
2,8,27,-0.63,0.12,-0.55,-181.40,75.01,-12.33
2,8,27,-0.68,0.16,-0.72,-182.86,75.38,-8.30
2,8,27,-0.70,0.25,-0.81,-162.17,61.52,-0.85
2,8,27,-0.73,0.38,-0.83,-138.49,36.68,8.79
2,8,27,-0.75,0.52,-0.78,-115.78,5.13,19.17
2,8,27,-0.75,0.52,-0.78,-115.78,5.13,19.17
2,8,27,-0.74,0.65,-0.72,-96.92,-22.64,27.95
2,8,27,-0.80,0.72,-0.61,-83.62,-46.81,33.02
2,9,27,-0.88,0.66,-0.44,-70.19,-64.94,36.99
2,9,27,-1.03,0.54,-0.26,-46.45,-74.40,42.79
2,9,27,-1.03,0.54,-0.26,-46.45,-74.40,42.79
2,9,26,-1.20,0.37,-0.08,-21.36,-74.16,49.01
2,9,26,-1.31,0.25,0.07,0.61,-59.81,54.75
1,9,26,-1.38,0.19,0.19,16.97,-38.21,58.53
1,9,26,-1.38,0.19,0.19,24.11,-20.08,60.00
1,9,26,-1.41,0.14,0.26,24.11,-20.08,60.00
1,9,26,-1.49,0.07,0.27,25.02,-8.12,59.45
1,9,26,-1.68,0.01,0.21,19.41,-3.72,56.46
1,9,26,-1.86,-0.16,0.06,8.18,-0.61,50.66
1,9,26,-1.86,-0.16,0.06,8.18,-0.61,50.66
1,9,26,-1.91,-0.30,0.01,9.83,6.23,46.20
1,8,26,-1.78,-0.36,0.01,19.17,14.22,43.46
2,8,26,-1.57,-0.40,0.03,21.24,13.06,40.71
2,8,26,-1.57,-0.40,0.03,19.90,1.65,39.31
2,8,26,-1.49,-0.38,-0.01,19.90,1.65,39.31
2,8,26,-1.45,-0.44,0.06,18.49,-18.43,37.48
2,8,26,-1.51,-0.43,0.08,9.58,-40.47,35.52
2,7,26,-1.54,-0.38,0.15,-2.87,-53.41,33.14
2,6,26,-1.54,-0.38,0.15,-2.87,-53.41,33.14
2,6,25,-1.55,-0.29,0.22,-26.12,-57.31,27.65
2,5,25,-1.52,-0.18,0.29,-56.21,-58.35,20.39
3,5,25,-1.48,-0.05,0.30,-86.79,-60.49,14.16
3,5,25,-1.46,0.04,0.26,-112.12,-59.39,8.97
3,5,25,-1.46,0.04,0.26,-112.12,-59.39,8.97
2,5,25,-1.35,0.06,0.20,-128.11,-51.57,4.94
2,4,25,-1.23,0.01,0.11,-135.80,-42.66,2.62
2,4,25,-1.13,-0.02,-0.03,-139.16,-39.31,1.10
2,4,25,-1.13,-0.02,-0.03,-137.82,-37.72,0.92
2,4,25,-1.03,-0.08,-0.18,-137.82,-37.72,0.92
2,4,25,-0.99,-0.13,-0.32,-130.25,-35.34,2.62
3,4,25,-0.90,-0.11,-0.38,-114.81,-34.48,6.10
3,4,25,-0.92,-0.11,-0.42,-92.47,-34.73,10.01
3,4,25,-0.92,-0.11,-0.42,-71.84,-38.64,13.79
3,4,26,-0.91,-0.15,-0.38,-71.84,-38.64,13.79
3,4,26,-0.91,-0.19,-0.30,-62.44,-44.62,16.17
3,4,27,-0.92,-0.18,-0.28,-67.50,-48.52,16.72
3,4,28,-0.86,-0.18,-0.25,-75.32,-52.43,17.94
3,4,28,-0.82,-0.18,-0.24,-74.52,-58.47,21.12
4,5,28,-0.82,-0.18,-0.24,-74.52,-58.47,21.12
4,5,29,-0.78,-0.18,-0.16,-69.09,-65.67,24.29
4,5,29,-0.73,-0.15,-0.12,-69.27,-66.89,25.15
4,5,29,-0.69,-0.08,-0.11,-69.21,-62.44,23.07
5,5,29,-0.73,-0.03,-0.13,-66.22,-60.36,18.55
5,5,29,-0.73,-0.03,-0.13,-66.22,-60.36,18.55
4,5,29,-0.62,0.04,-0.11,-59.14,-56.15,14.28
4,5,29,-0.60,0.06,-0.10,-48.83,-54.14,10.07
4,5,29,-0.64,0.12,-0.09,-50.42,-55.60,5.31
4,5,29,-0.68,0.12,-0.11,-53.53,-50.17,-0.18
4,6,29,-0.68,0.12,-0.11,-53.53,-50.17,-0.18
4,6,29,-0.69,-0.09,-0.11,-44.98,-33.39,-3.30
4,6,29,-0.80,0.09,0.01,-27.47,-13.12,-2.20
4,6,29,-0.82,0.24,-0.13,-51.57,-1.16,-6.47
4,6,29,-0.78,0.08,-0.23,-73.49,4.64,-16.91
4,7,29,-0.78,0.08,-0.23,-73.49,4.64,-16.91
4,7,29,-0.78,0.06,-0.30,-73.36,10.44,-21.18
3,7,29,-0.71,0.01,-0.30,-74.65,14.10,-23.38
3,7,29,-0.77,-0.04,-0.30,-77.51,16.91,-24.90
3,7,29,-0.78,-0.06,-0.25,-79.90,20.57,-24.72
3,7,29,-0.78,-0.06,-0.25,-79.90,20.57,-24.72
3,7,29,-0.78,-0.04,-0.25,-82.15,22.46,-25.27
3,7,29,-0.74,-0.14,-0.20,-86.12,22.64,-24.05
3,7,29,-0.80,-0.13,-0.24,-89.36,24.60,-20.14
3,7,29,-0.79,-0.18,-0.25,-96.50,28.69,-18.80
3,8,29,-0.79,-0.18,-0.25,-104.00,29.72,-17.94
3,8,29,-0.80,-0.17,-0.28,-104.00,29.72,-17.94
4,9,29,-0.83,-0.15,-0.32,-111.51,26.18,-17.82
4,10,29,-0.92,-0.12,-0.35,-117.37,23.13,-17.82
4,10,30,-0.95,-0.07,-0.34,-119.51,24.23,-18.25
4,11,30,-0.95,-0.07,-0.34,-118.90,26.61,-19.90
4,11,31,-1.00,-0.02,-0.33,-118.90,26.61,-19.90
4,11,30,-1.04,0.01,-0.28,-117.86,25.70,-22.95
4,11,30,-1.10,0.07,-0.24,-117.00,20.45,-26.37
4,12,30,-1.15,0.13,-0.21,-116.09,13.12,-29.36
4,12,30,-1.15,0.13,-0.21,-112.24,4.82,-31.62
4,11,30,-1.18,0.16,-0.20,-112.24,4.82,-31.62
3,11,30,-1.20,0.21,-0.19,-103.27,-2.75,-33.51
3,11,30,-1.17,0.19,-0.17,-90.39,-7.45,-35.46
3,11,30,-1.12,0.08,-0.14,-76.11,-10.93,-38.64
3,11,30,-1.18,-0.09,-0.14,-63.23,-13.37,-42.11
3,11,30,-1.18,-0.09,-0.14,-63.23,-13.37,-42.11
3,11,30,-1.33,-0.22,-0.22,-55.11,-7.81,-45.17
3,11,30,-1.46,-0.23,-0.32,-51.51,7.14,-47.42
3,11,30,-1.51,-0.13,-0.33,-51.15,23.44,-48.16
3,11,30,-1.48,-0.01,-0.22,-52.92,27.95,-48.89
3,11,30,-1.48,-0.01,-0.22,-52.92,27.95,-48.89
3,11,30,-1.36,0.11,-0.06,-55.54,14.77,-48.34
3,11,30,-1.32,0.15,0.09,-60.61,-5.13,-46.69
3,11,30,-1.42,0.17,0.13,-68.79,-17.76,-44.49
3,11,30,-1.52,0.20,0.10,-75.13,-16.85,-43.03
3,11,30,-1.52,0.20,0.10,-75.13,-16.85,-43.03
3,11,30,-1.60,0.24,0.04,-79.22,-5.74,-42.42
3,10,30,-1.65,0.19,0.05,-81.42,8.00,-41.38
3,10,30,-1.56,0.05,0.15,-85.75,17.52,-39.00
3,10,30,-1.74,0.32,0.09,-99.61,13.49,-34.97
2,10,30,-1.74,0.32,0.09,-99.61,13.49,-34.97
1,10,30,-1.63,0.29,0.04,-105.04,4.33,-35.52
0,8,30,-1.62,0.25,0.02,-108.34,-9.64,-31.07
0,7,30,-1.57,0.20,-0.03,-99.98,-7.51,-24.23
-1,7,30,-1.57,0.20,-0.03,-92.83,-5.98,-17.88
-2,7,29,-1.54,0.18,-0.02,-92.83,-5.98,-17.88
-2,6,29,-1.47,0.12,-0.00,-90.76,-10.25,-13.24
-2,6,29,-1.39,0.18,-0.06,-93.75,-13.67,-10.07
-3,6,29,-1.23,0.22,-0.07,-88.01,-9.83,-9.22
-3,6,29,-1.15,0.21,-0.09,-84.29,-6.35,-8.06
-3,6,29,-1.15,0.21,-0.09,-84.29,-6.35,-8.06
-4,6,28,-0.99,0.21,-0.01,-85.75,-5.62,-9.52
-4,6,28,-0.96,0.24,-0.06,-90.39,-2.14,-12.51
-4,5,27,-0.84,0.15,-0.00,-94.91,5.86,-15.44
-4,5,27,-0.74,0.12,-0.03,-97.84,17.40,-15.81
-4,5,26,-0.74,0.12,-0.03,-96.80,23.56,-14.77
-4,5,25,-0.62,0.07,-0.05,-96.80,23.56,-14.77
-5,5,24,-0.57,0.08,-0.08,-91.80,22.22,-11.78
-5,5,24,-0.52,0.06,-0.12,-85.08,21.42,-9.09
-5,5,24,-0.46,0.05,-0.13,-77.88,23.44,-7.08
-5,5,24,-0.46,0.05,-0.13,-71.78,28.26,-5.62
-5,5,24,-0.40,0.06,-0.11,-71.78,28.26,-5.62
-5,5,23,-0.37,0.06,-0.07,-68.24,35.10,-4.52
-5,5,23,-0.35,0.04,-0.05,-68.66,41.81,-4.15
-5,5,23,-0.31,0.00,-0.00,-73.12,47.36,-4.88
-5,5,23,-0.27,-0.02,0.02,-80.51,50.29,-6.10
-5,5,23,-0.27,-0.02,0.02,-80.51,50.29,-6.10
-5,5,23,-0.26,0.01,0.01,-89.17,50.96,-7.93
-5,5,23,-0.25,0.04,-0.00,-95.58,50.72,-9.95
-5,5,23,-0.26,0.07,-0.02,-99.98,50.78,-12.39
-5,5,22,-0.27,0.05,-0.05,-102.91,54.44,-14.59
-5,5,22,-0.27,0.05,-0.05,-102.91,54.44,-14.59
-5,5,22,-0.26,0.03,-0.10,-106.81,61.22,-17.03
-5,5,22,-0.26,0.05,-0.16,-112.12,66.35,-20.20
-5,5,22,-0.28,0.07,-0.21,-111.15,69.76,-21.67
-5,5,22,-0.34,0.06,-0.29,-104.86,72.57,-21.36
-5,5,22,-0.34,0.06,-0.29,-104.86,72.57,-21.36
-5,5,22,-0.44,0.06,-0.36,-93.32,72.20,-19.53
-5,5,22,-0.57,0.04,-0.46,-77.94,66.71,-16.54
-5,5,22,-0.73,0.06,-0.54,-60.61,53.71,-11.47
-5,5,21,-0.95,0.11,-0.57,-40.34,32.96,-5.86
-5,5,21,-0.95,0.11,-0.57,-25.63,6.47,-0.61
-5,5,19,-1.16,0.20,-0.55,-25.63,6.47,-0.61
-5,5,17,-1.41,0.31,-0.44,-11.35,-22.95,5.92
-6,5,17,-1.60,0.46,-0.30,-8.24,-52.06,9.83
-6,5,17,-1.79,0.59,-0.17,-23.50,-73.12,8.12
-6,5,17,-1.79,0.59,-0.17,-53.59,-77.76,1.95
-6,5,17,-1.83,0.56,-0.06,-53.59,-77.76,1.95
-6,5,17,-1.83,0.55,0.03,-74.28,-65.67,-2.32
-6,5,17,-1.87,0.49,0.01,-74.71,-52.25,-2.38
-6,5,17,-1.99,0.38,-0.05,-57.31,-40.65,1.22
-6,5,16,-1.99,0.38,-0.05,-33.26,-20.75,6.35
-6,5,16,-2.07,0.22,-0.15,-33.26,-20.75,6.35
-6,5,16,-2.17,0.11,-0.19,-6.96,5.00,13.49
-6,5,16,-2.21,0.05,-0.27,10.56,33.20,21.36
-6,5,16,-2.22,0.08,-0.40,15.01,57.68,26.98
-6,5,16,-2.22,0.08,-0.40,15.44,66.83,30.40
-6,6,16,-2.22,0.17,-0.55,15.44,66.83,30.40
-6,6,16,-2.16,0.17,-0.57,17.03,59.02,31.13
-6,6,16,-1.97,0.16,-0.44,16.11,40.53,28.99
-6,6,16,-1.76,0.25,-0.25,10.74,18.43,27.89
-6,6,16,-1.76,0.25,-0.25,10.74,18.43,27.89
-6,6,16,-1.65,0.39,-0.03,8.97,-3.17,30.64
-6,6,16,-1.50,0.46,0.25,20.26,-25.21,35.46
-6,6,16,-1.41,0.47,0.48,38.21,-44.01,41.56
-6,6,16,-1.41,0.47,0.48,49.87,-48.77,47.55
-6,6,16,-1.29,0.44,0.67,49.87,-48.77,47.55
-6,6,16,-1.20,0.37,0.83,49.80,-48.77,52.25
-6,6,16,-1.29,0.44,0.95,33.45,-41.63,52.92
-6,5,16,-1.28,0.46,0.86,18.49,-23.44,50.72
-7,5,16,-1.28,0.46,0.86,18.49,-23.44,50.72
-7,5,16,-1.20,0.41,0.57,8.00,-1.40,47.12
-7,5,16,-1.09,0.30,0.35,3.91,15.14,44.01
-8,5,16,-1.05,0.18,0.23,2.08,20.02,42.48
-8,5,16,-1.05,0.18,0.23,6.65,14.77,42.79
-8,5,17,-1.02,0.09,0.22,6.65,14.77,42.79
-8,5,18,-1.09,0.02,0.23,9.09,0.37,44.31
-8,5,18,-1.19,-0.03,0.30,8.42,-14.10,44.98
-8,5,18,-1.28,0.04,0.33,5.19,-23.44,43.46
-8,5,18,-1.28,0.04,0.33,5.19,-23.44,43.46
-8,5,19,-1.30,0.09,0.36,9.28,-27.22,38.82
-8,5,19,-1.24,0.03,0.41,18.31,-29.30,32.47
-8,4,19,-1.26,0.01,0.33,21.48,-31.01,26.79
-7,2,19,-1.18,-0.01,0.27,22.09,-26.00,19.41
-7,1,19,-1.18,-0.01,0.27,22.09,-26.00,19.41
-7,0,19,-1.10,-0.00,0.17,23.80,-17.46,13.18
-6,0,19,-0.97,-0.05,0.11,19.84,-3.91,6.59
-5,0,19,-0.87,-0.10,0.13,18.43,1.77,1.59
-5,-1,19,-0.87,-0.10,0.13,12.51,-2.62,-0.85
-5,-1,19,-0.81,-0.09,0.01,12.51,-2.62,-0.85
-5,-1,19,-0.69,-0.11,0.02,4.03,2.50,-4.64
-5,-1,19,-0.62,-0.14,0.05,-2.38,7.63,-7.45
-5,-1,19,-0.55,-0.15,0.10,-8.61,10.31,-8.18
-4,-1,18,-0.49,-0.17,0.14,-18.62,15.63,-8.85
-4,-1,18,-0.49,-0.17,0.14,-18.62,15.63,-8.85
-4,-1,18,-0.45,-0.19,0.14,-27.53,22.71,-8.30
-4,-1,18,-0.37,-0.18,0.11,-38.27,29.72,-6.59
-4,-1,18,-0.30,-0.14,0.06,-47.85,35.16,-4.39
-4,-1,18,-0.24,-0.10,-0.00,-52.98,39.67,-0.85
-4,-1,17,-0.24,-0.10,-0.00,-54.63,43.46,3.85
-4,-1,17,-0.21,-0.08,-0.07,-54.63,43.46,3.85
-4,-1,17,-0.19,-0.06,-0.12,-53.96,46.63,9.34
-3,-1,17,-0.17,-0.10,-0.13,-51.45,49.13,15.38
-3,-1,17,-0.13,-0.02,-0.13,-52.31,49.38,20.69
-3,-1,17,-0.14,0.09,-0.12,-52.92,51.45,24.35
-3,-1,17,-0.14,0.09,-0.12,-52.92,51.45,24.35
-3,-1,17,-0.10,0.08,0.01,-35.10,59.81,30.03
-3,-1,17,-0.04,0.04,0.02,-18.31,66.59,37.35
-3,-1,17,-0.05,-0.01,-0.02,-17.09,65.92,39.25
-3,-1,17,-0.13,-0.05,-0.02,-14.65,60.61,40.22
-3,-1,17,-0.13,-0.05,-0.02,-8.36,60.12,43.95
-3,-1,17,-0.19,-0.05,0.06,-8.36,60.12,43.95
-3,-1,17,-0.20,-0.05,0.07,-8.00,64.94,47.55
-3,-1,17,-0.21,-0.02,0.04,-11.78,68.97,50.66
-3,-1,17,-0.21,0.02,0.01,-16.60,69.64,53.77
-3,-1,17,-0.21,0.02,0.01,-19.59,69.09,57.74
-3,-1,17,-0.23,0.04,-0.06,-19.59,69.09,57.74
-3,-1,17,-0.27,0.08,-0.14,-14.77,68.12,62.99
-3,-1,17,-0.39,0.10,-0.28,1.10,65.43,69.52
-3,-1,17,-0.53,0.16,-0.31,23.86,59.94,76.05
-3,-1,17,-0.53,0.16,-0.31,46.57,52.61,79.59
-3,-1,17,-0.60,0.24,-0.29,46.57,52.61,79.59
-3,-1,17,-0.75,0.20,-0.27,64.45,36.62,80.08
-3,-1,17,-1.05,0.06,-0.22,70.92,15.26,74.65
-3,-1,17,-1.37,-0.08,-0.09,67.32,-2.50,62.68
-3,-1,17,-1.37,-0.08,-0.09,51.70,-15.75,46.26
-3,-1,17,-1.76,-0.24,0.05,51.70,-15.75,46.26
-3,-1,17,-1.77,-0.44,0.22,23.99,-28.38,27.22
-3,-1,17,-1.80,-0.68,0.24,-16.05,-36.01,16.30
-3,-1,17,-2.35,-1.04,-0.13,-49.13,-37.54,16.24
-3,-1,17,-3.08,-1.38,-0.19,-47.55,-43.58,8.42
-3,-1,17,-3.08,-1.38,-0.19,-47.55,-43.58,8.42
-3,-1,17,-3.33,-1.69,0.17,-40.16,-60.06,-6.96
-3,-1,16,-3.27,-1.69,0.29,-65.67,-53.10,-20.20
-3,-1,16,-3.12,-1.32,0.12,-87.89,-33.63,-31.56
-2,-1,16,-2.87,-0.86,-0.03,-94.97,-17.58,-40.71
-2,-1,15,-2.74,-0.76,0.10,-84.17,-9.22,-43.88
-2,-1,15,-2.74,-0.76,0.10,-84.17,-9.22,-43.88
-2,-1,14,-2.47,-0.65,0.22,-63.05,-6.23,-45.35
-2,-1,14,-2.11,-0.62,0.21,-57.37,-4.15,-52.06
-1,-2,13,-1.82,-0.59,0.30,-60.91,-12.27,-61.65
-1,-2,13,-1.49,-0.26,0.46,-63.29,-19.65,-68.30
-1,-2,13,-1.32,0.01,0.54,-63.66,-23.25,-70.37
-1,-2,13,-1.32,0.01,0.54,-63.66,-23.25,-70.37
-1,-2,13,-1.21,0.14,0.59,-64.27,-22.95,-73.36
-1,-2,13,-1.08,0.19,0.62,-61.46,-17.27,-79.71
-1,-2,13,-0.90,0.22,0.56,-55.66,-12.21,-85.27
-1,-2,13,-0.69,0.22,0.45,-49.32,-13.85,-88.62
-1,-2,13,-0.50,0.17,0.26,-42.60,-15.01,-90.09
-1,-2,13,-0.50,0.17,0.26,-42.60,-15.01,-90.09
-1,-2,13,-0.36,0.11,0.11,-34.61,-10.38,-88.62
-1,-2,13,-0.33,0.04,0.06,-22.89,-6.23,-82.28
-1,-3,13,-0.40,-0.01,0.11,-17.09,-6.47,-75.56
-1,-3,13,-0.49,-0.05,0.23,-24.90,-11.72,-71.96
-1,-3,13,-0.64,-0.07,0.43,-42.42,-18.43,-70.43
-1,-3,13,-0.64,-0.07,0.43,-42.42,-18.43,-70.43
-1,-3,13,-0.76,0.03,0.61,-71.11,-20.94,-71.66
-1,-3,13,-0.81,0.22,0.63,-107.12,-22.16,-77.21
-1,-3,13,-0.76,0.40,0.48,-136.17,-24.48,-84.53
-1,-3,13,-0.73,0.51,0.30,-147.34,-25.82,-88.81
-1,-3,13,-0.73,0.51,0.30,-142.33,-25.27,-87.52
-1,-4,13,-0.75,0.55,0.09,-142.33,-25.27,-87.52
-1,-4,13,-0.79,0.64,-0.10,-127.38,-19.47,-79.22
-1,-4,13,-0.85,0.62,-0.15,-103.70,-9.58,-67.20
-2,-3,13,-0.94,0.56,-0.21,-89.54,-3.60,-56.64
-2,-3,13,-1.09,0.47,-0.15,-85.63,-7.08,-47.79
-2,-3,13,-1.09,0.47,-0.15,-85.63,-7.08,-47.79
-2,-3,13,-1.17,0.37,0.01,-74.28,-6.35,-39.18
-2,-3,13,-1.26,0.33,0.16,-74.10,0.55,-31.37
-2,-3,13,-1.34,0.35,0.26,-84.84,2.38,-25.63
-2,-3,13,-1.58,0.38,0.28,-100.71,-1.71,-19.65
-2,-4,13,-1.75,0.43,0.26,-108.28,-3.36,-10.25
-2,-4,13,-1.75,0.43,0.26,-108.28,-3.36,-10.25
-2,-4,13,-1.89,0.43,0.29,-101.38,5.37,-2.14
-2,-4,13,-2.04,0.33,0.29,-90.21,23.56,5.07
-2,-4,13,-2.16,0.34,0.20,-81.60,38.51,13.67
-2,-4,13,-2.24,0.50,0.11,-84.72,52.43,21.85
-3,-4,13,-2.24,0.50,0.11,-84.72,52.43,21.85
-4,-4,13,-2.24,0.64,-0.16,-86.73,61.52,26.92
-5,-3,13,-2.09,0.49,-0.30,-73.43,50.05,31.31
-5,-3,13,-1.98,0.29,-0.51,-65.12,27.16,40.22
-6,-3,13,-1.83,0.27,-0.56,-57.98,5.68,50.35
-6,-3,13,-1.83,0.27,-0.56,-57.98,5.68,50.35
-6,-3,13,-1.62,0.40,-0.53,-45.59,4.82,58.72
-7,-3,13,-1.39,0.48,-0.38,-25.09,2.20,66.53
-7,-3,13,-1.30,0.52,-0.16,-3.48,-12.76,71.35
-7,-3,13,-1.07,0.41,0.03,19.04,-21.12,73.85
-7,-3,13,-1.07,0.41,0.03,19.04,-21.12,73.85
-7,-3,13,-0.84,0.29,0.18,34.73,-29.11,74.28
-7,-3,13,-0.66,0.05,0.24,35.46,-32.04,72.88
-7,-3,13,-0.60,0.07,0.26,22.52,-36.44,70.56
-7,-3,13,-0.53,0.11,0.24,3.60,-34.18,66.65
-7,-3,13,-0.53,0.11,0.24,3.60,-34.18,66.65
-7,-3,13,-0.35,0.08,0.26,-5.19,-21.24,63.05
-7,-3,13,-0.25,0.02,0.33,-5.43,-11.96,61.34
-7,-3,13,-0.18,-0.03,0.30,-12.70,-11.47,58.65
-7,-3,13,-0.25,-0.02,0.23,-18.86,-15.63,57.86
-7,-3,13,-0.25,-0.02,0.23,-24.72,-18.37,57.86
-7,-3,13,-0.33,0.00,0.18,-24.72,-18.37,57.86
-7,-3,13,-0.36,0.07,0.13,-27.71,-9.03,57.74
-7,-3,13,-0.37,0.10,0.14,-30.15,9.77,57.68
-7,-3,13,-0.30,0.18,0.16,-35.34,30.46,54.38
-7,-4,13,-0.30,0.18,0.16,-42.85,46.26,50.72
-7,-4,13,-0.25,0.27,0.18,-42.85,46.26,50.72
-7,-4,13,-0.14,0.33,0.17,-48.10,58.53,48.22
-7,-4,13,-0.05,0.44,0.19,-46.75,64.39,48.03
-7,-4,13,0.10,0.50,0.24,-33.94,61.65,50.66
-7,-4,13,0.10,0.50,0.24,-16.36,52.19,54.69
-7,-4,13,0.20,0.48,0.21,-16.36,52.19,54.69
-7,-4,13,0.15,0.38,0.05,-3.48,39.12,58.78
-7,-4,13,0.10,0.25,-0.08,10.19,35.77,62.74
-7,-4,13,0.12,0.16,-0.15,20.87,43.15,64.70
-7,-4,13,0.12,0.16,-0.15,20.87,43.15,64.70
-7,-4,13,0.08,0.18,-0.22,26.18,45.90,65.25
-7,-4,13,0.06,0.22,-0.16,34.06,45.17,67.02
-7,-4,13,-0.00,0.24,-0.14,43.82,35.52,69.46
-7,-4,13,-0.00,0.24,-0.14,49.07,13.61,72.81
-7,-4,13,-0.19,0.22,-0.20,49.07,13.61,72.81
-7,-4,13,-0.81,0.01,-0.36,60.61,-18.98,74.52
-7,-4,12,-1.78,-0.45,-0.26,83.56,-59.94,67.38
-7,-4,12,-2.52,-1.14,0.39,101.75,-86.85,46.33
-7,-4,12,-2.74,-1.52,1.13,85.57,-60.12,28.93
-7,-4,12,-2.74,-1.52,1.13,85.57,-60.12,28.93
-7,-4,12,-2.39,-1.13,0.90,36.99,-19.84,15.93
-7,-4,11,-2.10,-0.63,0.28,17.64,-6.96,3.36
-7,-4,11,-3.10,-0.88,0.01,33.14,-3.66,13.06
-7,-4,11,-2.64,-0.86,0.36,49.13,-21.06,-6.65
-7,-4,11,-2.64,-0.86,0.36,49.13,-21.06,-6.65
-7,-4,10,-1.38,-0.29,0.21,40.83,-36.80,-32.71
-7,-4,10,-1.29,0.28,0.04,37.66,-47.49,-17.94
-7,-4,9,-1.72,0.28,-0.10,72.45,-70.50,-3.36
-7,-4,9,-1.74,-0.16,0.07,98.02,-69.09,-2.69
-7,-4,8,-1.74,-0.16,0.07,108.22,-56.15,-11.47
-7,-4,8,-1.66,-0.52,0.21,108.22,-56.15,-11.47
-7,-4,6,-1.64,-0.69,0.24,96.80,-55.85,-18.80
-7,-4,5,-1.41,-0.62,0.29,74.16,-59.69,-24.41
-7,-4,4,-1.27,-0.48,0.35,45.29,-59.39,-33.14
-7,-4,3,-1.18,-0.32,0.34,18.07,-54.20,-43.95
-7,-4,3,-1.18,-0.32,0.34,18.07,-54.20,-43.95
-7,-5,3,-0.86,-0.17,0.40,13.18,-34.12,-50.84
-7,-5,3,-0.63,-0.14,0.37,19.71,-13.24,-55.24
-6,-5,3,-0.49,-0.05,0.28,25.94,1.34,-57.98
-6,-5,3,-0.40,-0.06,0.19,37.17,10.62,-58.65
-6,-5,2,-0.40,-0.06,0.19,42.05,11.47,-59.51
-6,-5,2,-0.33,-0.07,0.11,42.05,11.47,-59.51
-6,-5,2,-0.30,-0.06,0.01,44.19,11.11,-59.39
-5,-5,2,-0.22,-0.08,-0.04,44.86,16.48,-57.86
-5,-5,2,-0.13,-0.11,-0.04,44.74,27.71,-57.68
-5,-5,2,-0.13,-0.11,-0.04,39.92,43.33,-58.41
-5,-5,2,-0.06,-0.13,0.02,39.92,43.33,-58.41
-5,-5,2,0.05,-0.14,0.02,22.58,56.27,-61.22
-5,-5,2,0.08,-0.13,0.00,-1.40,58.84,-64.03
-5,-5,2,0.08,-0.13,-0.05,-18.13,50.78,-65.49
-5,-5,2,0.11,-0.14,-0.08,-26.43,38.02,-64.33
-5,-5,2,0.11,-0.14,-0.08,-26.43,38.02,-64.33
-5,-5,2,0.12,-0.15,-0.14,-31.19,25.15,-60.55
-5,-5,2,0.09,-0.16,-0.20,-31.07,10.07,-54.32
-5,-5,3,-0.03,-0.13,-0.27,-25.45,-8.06,-46.88
-5,-5,3,-0.14,-0.10,-0.28,-13.49,-26.55,-41.69
-5,-5,3,-0.14,-0.10,-0.28,2.87,-40.95,-37.48
-5,-5,3,-0.21,-0.08,-0.21,2.87,-40.95,-37.48
-5,-5,3,-0.23,-0.08,-0.09,11.54,-45.59,-33.63
-5,-5,3,-0.29,-0.11,0.01,8.30,-41.99,-31.74
-5,-5,3,-0.37,-0.05,0.03,-4.52,-27.89,-33.39
-5,-5,3,-0.59,0.03,-0.05,-20.39,-4.58,-37.60
-5,-5,3,-0.59,0.03,-0.05,-32.17,28.26,-46.02
-5,-5,3,-0.93,0.07,-0.23,-32.17,28.26,-46.02
-5,-5,3,-1.41,0.17,-0.41,-39.67,65.12,-59.14
-5,-5,3,-2.42,0.21,-1.17,-46.63,95.76,-77.82
-5,-5,3,-2.97,-0.09,-0.80,-45.04,126.34,-88.13
-5,-5,3,-2.02,0.08,-0.47,-118.77,104.68,-74.83
-5,-5,3,-2.02,0.08,-0.47,-118.77,104.68,-74.83
-5,-5,3,-2.24,0.64,0.26,-181.95,-43.58,-40.83
-5,-5,3,-2.39,1.74,0.81,-192.57,-196.35,-23.13
-5,-5,3,-2.78,1.64,0.75,-179.38,-180.85,-31.37
-5,-5,3,-2.88,0.90,1.37,-112.00,-78.19,-36.07
-5,-5,3,-2.67,0.30,1.44,-26.92,-6.96,-31.07
-5,-5,3,-2.67,0.30,1.44,-26.92,-6.96,-31.07
-5,-5,3,-2.69,0.22,0.86,-7.87,19.78,-26.86
-5,-5,3,-2.65,0.18,0.57,-33.08,41.87,-29.11
-5,-5,3,-2.47,0.24,0.22,-105.41,69.03,-33.39
-5,-5,3,-1.98,0.46,-0.31,-131.16,101.38,-22.40
-5,-5,3,-1.98,0.46,-0.31,-104.19,96.13,-1.53
-5,-5,3,-1.72,0.46,-0.72,-104.19,96.13,-1.53
-5,-5,3,-1.53,0.52,-0.88,-51.94,62.62,20.57
-5,-5,3,-1.33,0.47,-0.81,3.23,29.11,38.64
-6,-5,3,-1.22,0.37,-0.47,50.17,6.53,51.45
-6,-5,3,-1.22,0.37,-0.47,66.89,-5.49,59.20
-6,-5,3,-1.03,0.27,-0.22,66.89,-5.49,59.20
-6,-5,3,-0.83,0.24,-0.11,59.88,-17.03,62.50
-6,-5,3,-0.77,0.11,0.02,58.35,-29.17,65.80
-6,-5,3,-0.63,0.13,0.08,59.94,-36.38,65.55
-7,-5,3,-0.63,0.13,0.08,61.04,-38.21,65.43
-7,-5,3,-0.47,0.17,0.15,61.04,-38.21,65.43
-7,-5,3,-0.41,0.05,0.24,63.72,-33.81,68.05
-7,-5,3,-0.29,0.01,0.28,57.62,-26.18,67.38
-7,-5,3,-0.27,-0.00,0.28,47.30,-20.32,67.93
-7,-5,3,-0.27,-0.00,0.28,37.60,-13.73,68.60
-7,-5,3,-0.25,0.03,0.23,37.60,-13.73,68.60
-7,-5,3,-0.23,0.05,0.20,29.91,-6.59,67.99
-7,-5,3,-0.22,0.05,0.18,22.16,2.44,67.32
-7,-5,3,-0.20,0.04,0.17,7.93,13.79,65.19
-7,-5,3,-0.20,0.04,0.17,7.93,13.79,65.19
-7,-5,3,-0.19,0.03,0.17,-8.48,24.17,62.19
-7,-6,3,-0.16,0.02,0.15,-26.31,34.48,58.59
-7,-8,3,-0.10,0.04,0.15,-47.49,39.55,54.44
-7,-9,3,-0.08,0.10,0.13,-73.24,38.70,49.13
-8,-10,3,-0.08,0.10,0.13,-73.24,38.70,49.13
-8,-10,3,-0.07,0.18,0.14,-92.71,31.86,44.98
-8,-10,3,-0.05,0.20,0.12,-99.00,21.48,43.58
-8,-10,3,-0.05,0.24,0.09,-98.27,14.34,43.09
-8,-11,4,-0.06,0.29,0.07,-91.43,10.62,43.95
-8,-11,4,-0.06,0.29,0.07,-91.43,10.62,43.95
-8,-11,4,-0.07,0.33,0.09,-79.90,8.85,45.41
-8,-12,4,-0.06,0.40,0.06,-66.10,8.00,49.32
-8,-12,4,-0.13,0.45,0.09,-45.65,10.44,55.30
-8,-12,4,-0.13,0.45,0.09,-23.44,4.03,61.89
-8,-12,4,-0.37,0.46,0.06,-23.44,4.03,61.89
-8,-12,4,-0.87,0.22,0.08,-0.73,-7.69,65.00
-8,-12,4,-1.50,-0.03,0.24,26.18,-17.40,64.33
-8,-12,3,-2.09,-0.30,0.26,44.01,-19.04,55.54
-8,-12,3,-2.09,-0.30,0.26,45.78,5.68,41.02
-8,-12,3,-2.32,-0.60,0.34,45.78,5.68,41.02
-8,-12,3,-2.16,-0.88,0.44,39.37,39.79,26.67
-8,-12,3,-1.80,-0.94,0.18,30.09,46.08,18.25
-8,-12,3,-1.87,-1.15,0.18,36.68,11.05,26.86
-8,-12,3,-1.87,-1.15,0.18,26.86,-5.74,34.06
-8,-12,3,-1.77,-0.40,-0.12,26.86,-5.74,34.06
-8,-11,3,-1.63,0.42,-0.03,18.86,-23.19,27.47
-8,-11,3,-1.69,0.50,-0.04,26.61,-48.95,29.91
-8,-11,3,-1.84,0.07,0.15,61.28,-48.28,31.49
-8,-10,3,-1.84,0.07,0.15,78.00,-37.90,22.40
-8,-10,3,-1.86,-0.39,0.30,78.00,-37.90,22.40
-8,-10,3,-1.84,-0.53,0.22,60.73,-36.99,10.01
-8,-10,3,-1.76,-0.45,0.07,35.28,-39.06,0.79
-8,-10,3,-1.82,-0.36,-0.07,22.83,-42.18,-4.09
-8,-9,3,-1.92,-0.37,-0.01,25.33,-54.75,-4.94
-8,-9,3,-1.92,-0.37,-0.01,25.33,-54.75,-4.94
-8,-9,3,-1.82,-0.44,0.11,31.98,-57.68,-5.25
-8,-8,3,-1.67,-0.46,0.19,32.41,-48.83,-6.65
-8,-8,3,-1.54,-0.39,0.30,28.99,-37.90,-9.03
-7,-8,3,-1.36,-0.24,0.27,30.58,-34.91,-8.91
-4,-8,3,-1.36,-0.24,0.27,40.34,-29.42,-8.85
-2,-8,3,-1.15,-0.15,0.27,40.34,-29.42,-8.85
-2,-8,3,-0.97,-0.14,0.24,55.54,-19.04,-7.87
-1,-8,3,-0.78,-0.16,0.26,61.34,-5.55,-8.91
-1,-9,2,-0.64,-0.09,0.23,55.85,4.58,-11.47
0,-9,2,-0.55,-0.02,0.19,46.45,6.71,-14.77
0,-9,2,-0.55,-0.02,0.19,46.45,6.71,-14.77
0,-9,2,-0.41,0.01,0.12,35.22,9.46,-19.17
0,-9,2,-0.29,0.02,0.05,30.82,14.40,-22.77
0,-9,2,-0.23,0.07,-0.01,31.19,23.38,-25.21
0,-9,2,-0.23,0.07,-0.01,34.30,38.15,-28.63
0,-9,2,-0.12,0.11,-0.03,34.30,38.15,-28.63
0,-9,2,-0.03,0.09,-0.01,39.06,54.99,-33.94
0,-9,2,0.07,0.03,0.05,41.50,69.52,-39.25
0,-9,2,0.07,-0.02,0.12,33.69,79.53,-43.52
0,-9,2,0.07,-0.02,0.12,33.69,79.53,-43.52
0,-9,2,0.05,-0.09,0.17,17.76,79.71,-45.29
-1,-9,2,0.04,-0.12,0.12,-4.27,68.97,-46.94
-1,-9,2,0.03,-0.13,0.03,-23.86,51.76,-46.20
-1,-9,2,-0.02,-0.08,-0.08,-27.28,36.19,-43.64
-1,-9,2,-0.02,-0.08,-0.08,-27.28,36.19,-43.64
-1,-8,2,-0.03,-0.05,-0.13,-16.30,23.99,-39.00
-1,-8,2,-0.05,-0.05,-0.15,-3.30,12.63,-34.73
-1,-8,2,-0.07,-0.04,-0.11,6.53,2.26,-31.07
-1,-8,2,-0.09,-0.07,-0.05,14.34,-4.58,-28.38
-1,-8,2,-0.13,-0.04,0.02,13.24,-7.75,-27.22
-1,-8,2,-0.13,-0.04,0.02,13.24,-7.75,-27.22
-1,-8,2,-0.14,-0.03,0.06,7.08,-6.96,-27.10
-1,-8,2,-0.17,0.02,0.06,-2.44,-3.30,-27.83
-1,-8,2,-0.48,0.16,-0.04,-10.13,-3.91,-27.28
-1,-8,2,-0.90,0.33,-0.21,-15.69,-18.43,-20.32
-1,-8,2,-0.90,0.33,-0.21,-19.59,-44.07,-14.40
-1,-8,2,-1.40,0.36,-0.27,-19.59,-44.07,-14.40
-1,-8,2,-2.15,0.14,-0.32,-23.80,-70.98,-11.96
-1,-8,2,-2.21,-0.10,-0.12,-28.50,-86.85,-14.89
-1,-8,2,-1.99,0.07,0.08,-47.55,-88.81,-15.26
-1,-8,2,-1.66,0.50,0.46,-63.11,-91.43,-13.61
-1,-8,2,-1.66,0.50,0.46,-80.69,-107.91,-14.83
-1,-8,2,-1.39,0.73,0.43,-80.69,-107.91,-14.83
-1,-8,2,-1.54,0.35,0.24,-67.75,-108.15,-4.21
-1,-8,2,-1.80,0.21,0.09,-13.92,-87.28,15.69
-1,-8,2,-1.77,-0.01,0.35,36.19,-58.47,27.04
-1,-8,2,-1.62,-0.09,0.41,38.82,-42.91,28.75
-1,-8,2,-1.62,-0.09,0.41,38.82,-42.91,28.75
-1,-8,2,-1.51,-0.20,0.40,18.49,-36.32,23.07
-1,-8,2,-1.42,-0.25,0.37,-19.84,-16.72,11.90
-1,-8,2,-1.27,-0.20,0.33,-51.21,18.31,3.30
-1,-9,2,-1.15,-0.10,0.23,-69.27,39.49,0.06
-1,-9,2,-1.15,-0.10,0.23,-77.64,40.34,1.22
-1,-9,2,-1.13,-0.03,0.03,-77.64,40.34,1.22
-1,-9,2,-1.08,0.10,-0.09,-68.48,34.42,5.49
-1,-9,1,-0.98,0.12,-0.12,-50.66,31.01,9.09
-1,-9,1,-0.88,0.03,-0.09,-39.37,27.16,11.47
-1,-9,0,-0.88,0.03,-0.09,-42.05,24.05,12.88
-1,-8,0,-0.78,-0.03,-0.10,-42.05,24.05,12.88
-1,-8,0,-0.66,-0.05,-0.11,-45.41,20.32,15.32
-1,-8,0,-0.53,-0.07,-0.12,-47.85,18.25,17.94
-1,-8,0,-0.51,-0.01,-0.15,-54.57,16.91,19.90
-1,-8,0,-0.44,0.01,-0.13,-57.19,13.00,20.87
-1,-8,0,-0.44,0.01,-0.13,-57.19,13.00,20.87
-1,-8,0,-0.39,0.03,-0.10,-61.71,10.19,20.02
-1,-7,0,-0.37,0.07,-0.07,-66.41,9.40,18.13
-1,-7,0,-0.33,0.09,-0.04,-66.35,9.64,16.36
-1,-7,0,-0.30,0.09,-0.03,-67.38,10.99,14.22
-1,-6,0,-0.30,0.09,-0.03,-67.38,10.99,14.22
-1,-6,0,-0.28,0.10,-0.03,-70.50,11.78,12.15
-1,-6,0,-0.26,0.09,-0.03,-69.15,15.32,10.80
-1,-6,0,-0.25,0.08,-0.04,-65.61,17.03,10.25
-1,-6,0,-0.25,0.04,-0.03,-63.17,17.15,10.13
-1,-6,-1,-0.25,0.04,-0.03,-63.17,17.15,10.13
-2,-5,-1,-0.25,-0.00,-0.03,-63.90,17.03,9.70
-2,-4,0,-0.23,-0.01,-0.03,-66.47,17.70,9.16
-1,-1,0,-0.22,-0.01,-0.03,-67.50,17.94,9.89
-1,1,0,-0.21,-0.03,-0.03,-65.00,17.15,10.80
-1,2,0,-0.21,-0.03,-0.03,-62.44,15.75,12.08
-1,3,0,-0.22,-0.05,-0.03,-62.44,15.75,12.08
-1,4,0,-0.23,-0.06,-0.04,-62.19,15.50,13.12
-1,5,0,-0.25,-0.05,-0.06,-63.72,16.05,13.98
-1,5,0,-0.28,-0.03,-0.09,-67.75,14.47,14.59
-1,5,0,-0.30,-0.00,-0.12,-70.68,11.90,15.56
-1,5,0,-0.30,-0.00,-0.12,-70.68,11.90,15.56
-1,5,0,-0.38,0.01,-0.16,-74.22,7.69,16.54
-1,5,0,-0.46,0.03,-0.23,-78.74,2.99,17.64
-1,5,0,-0.57,0.08,-0.31,-84.41,-0.85,19.10
-1,5,0,-0.57,0.08,-0.31,-88.32,-6.53,21.00
-1,5,0,-0.69,0.18,-0.39,-88.32,-6.53,21.00
-1,5,0,-0.78,0.25,-0.44,-85.82,-16.11,23.74
-1,5,0,-0.89,0.30,-0.50,-79.47,-27.95,26.92
-1,5,0,-1.02,0.34,-0.49,-64.70,-39.73,31.01
-2,6,0,-1.02,0.34,-0.49,-43.58,-51.82,36.25
-2,6,0,-1.25,0.24,-0.45,-43.58,-51.82,36.25
-2,6,0,-1.43,0.17,-0.41,-24.11,-63.23,39.12
-2,6,0,-1.83,-0.02,-0.36,-1.71,-73.97,43.15
-2,6,0,-2.10,-0.24,-0.27,14.59,-79.47,45.10
-2,6,0,-2.10,-0.24,-0.27,25.88,-77.76,45.84
-2,6,0,-2.16,-0.37,-0.18,25.88,-77.76,45.84
-2,6,0,-2.16,-0.50,0.02,39.00,-70.13,47.79
-2,6,0,-2.03,-0.56,0.46,45.96,-83.37,39.73
-2,6,0,-2.12,-0.35,0.57,13.00,-110.60,29.05
-2,6,0,-2.12,-0.35,0.57,13.00,-110.60,29.05
-1,6,0,-2.16,-0.42,0.63,-14.04,-111.76,18.31
-1,6,0,-1.99,-0.44,0.56,-53.96,-85.45,3.60
-1,6,0,-1.78,-0.44,0.40,-93.63,-57.80,-7.20
-1,6,0,-1.64,-0.35,0.28,-116.94,-46.51,-12.51
1,6,0,-1.64,-0.35,0.28,-130.74,-45.23,-15.44
3,6,0,-1.60,-0.27,0.12,-130.74,-45.23,-15.44
4,6,0,-1.57,-0.18,-0.00,-140.87,-33.81,-18.01
4,6,0,-1.47,-0.17,-0.05,-151.79,-15.26,-20.32
4,6,0,-1.30,-0.17,-0.09,-162.17,0.43,-21.24
4,6,0,-1.30,-0.17,-0.09,-170.47,7.93,-19.35
4,6,0,-1.16,-0.16,-0.17,-170.47,7.93,-19.35
4,6,0,-1.08,-0.11,-0.31,-177.43,3.97,-16.36
4,6,0,-1.01,-0.14,-0.40,-174.93,-4.33,-12.94
5,6,0,-0.94,-0.09,-0.50,-161.87,-6.53,-6.96
5,6,0,-0.94,-0.14,-0.54,-142.88,-7.57,0.31
5,6,0,-0.94,-0.14,-0.54,-142.88,-7.57,0.31
6,6,0,-0.90,-0.15,-0.54,-122.99,-13.18,9.22
7,6,0,-0.87,-0.13,-0.49,-104.55,-17.33,17.70
7,6,0,-0.89,-0.07,-0.43,-91.74,-20.87,24.29
6,6,1,-0.86,-0.04,-0.32,-84.17,-23.38,27.95
6,6,1,-0.86,-0.04,-0.32,-84.17,-23.38,27.95
6,6,4,-0.80,-0.08,-0.25,-84.35,-26.06,28.75
6,6,10,-0.77,-0.09,-0.19,-87.95,-29.36,28.93
6,6,12,-0.77,-0.10,-0.16,-95.52,-31.01,26.92
6,6,12,-0.74,-0.11,-0.14,-108.76,-28.56,21.91
6,6,13,-0.74,-0.11,-0.14,-108.76,-28.56,21.91
6,6,13,-0.76,-0.14,-0.16,-117.86,-27.59,17.76
6,6,13,-0.75,-0.13,-0.15,-119.20,-27.22,14.16
7,6,13,-0.73,-0.16,-0.13,-118.16,-25.33,9.83
7,6,13,-0.70,-0.19,-0.10,-120.42,-20.75,5.13
7,6,13,-0.70,-0.19,-0.10,-120.42,-20.75,5.13
7,7,13,-0.66,-0.21,-0.09,-126.10,-11.47,0.85
7,7,13,-0.59,-0.24,-0.09,-131.41,-1.16,-2.93
7,7,13,-0.54,-0.28,-0.10,-136.05,6.53,-6.29
7,7,14,-0.49,-0.27,-0.12,-140.14,10.01,-9.52
7,7,14,-0.49,-0.27,-0.12,-140.14,10.01,-9.52
7,8,14,-0.47,-0.27,-0.12,-142.88,11.17,-12.94
7,8,14,-0.46,-0.26,-0.13,-147.52,12.45,-16.30
7,8,14,-0.44,-0.26,-0.13,-152.53,15.14,-20.08
7,8,15,-0.43,-0.24,-0.14,-158.81,20.26,-23.80
7,8,16,-0.43,-0.24,-0.14,-158.81,20.26,-23.80
7,8,17,-0.44,-0.22,-0.15,-168.40,27.28,-27.04
8,8,17,-0.46,-0.17,-0.18,-178.59,35.71,-29.97
8,9,18,-0.48,-0.14,-0.21,-186.04,46.20,-31.86
8,9,18,-0.52,-0.14,-0.26,-193.54,56.88,-33.69
8,9,18,-0.52,-0.14,-0.26,-201.29,64.09,-34.79
8,9,18,-0.57,-0.16,-0.33,-201.29,64.09,-34.79
8,9,18,-0.66,-0.17,-0.42,-206.73,67.14,-34.24
8,9,18,-0.75,-0.14,-0.53,-211.24,65.80,-32.90
8,9,19,-0.93,-0.05,-0.67,-211.67,59.51,-30.03
8,10,19,-0.93,-0.05,-0.67,-203.98,43.03,-25.51
8,10,19,-1.05,0.06,-0.78,-203.98,43.03,-25.51
8,10,19,-1.24,0.15,-0.91,-193.24,12.27,-20.32
8,10,19,-1.56,0.27,-0.95,-181.46,-27.65,-15.01
8,10,19,-1.74,0.62,-1.02,-171.94,-65.98,-10.31
8,11,19,-1.74,0.62,-1.02,-171.94,-65.98,-10.31
8,11,19,-1.79,0.85,-0.83,-157.96,-96.98,-5.13
8,11,19,-1.72,0.94,-0.55,-138.49,-120.61,-3.72
8,11,19,-1.70,0.64,-0.23,-104.98,-124.82,-2.93
8,11,19,-1.64,0.31,0.18,-76.54,-120.67,-6.71
8,11,19,-1.64,0.31,0.18,-72.51,-130.62,-13.18
8,11,19,-1.67,0.15,0.34,-72.51,-130.62,-13.18
8,11,19,-1.71,0.07,0.44,-78.31,-137.02,-18.80
8,11,19,-1.73,0.06,0.48,-84.53,-122.38,-23.93
8,11,19,-1.66,0.09,0.55,-95.09,-92.29,-29.72
8,11,19,-1.66,0.09,0.55,-95.09,-92.29,-29.72
8,11,19,-1.60,0.18,0.50,-112.98,-63.35,-34.61
7,11,19,-1.55,0.28,0.36,-127.44,-36.19,-36.74
7,11,19,-1.47,0.33,0.20,-132.14,-8.12,-35.83
7,11,19,-1.33,0.29,0.00,-136.96,19.90,-34.18
7,11,19,-1.33,0.29,0.00,-136.96,19.90,-34.18
7,11,19,-1.16,0.24,-0.17,-142.88,39.37,-31.49
7,11,19,-1.03,0.12,-0.28,-139.95,43.52,-25.82
6,11,19,-0.94,0.09,-0.38,-132.14,37.23,-17.46
6,11,19,-0.89,0.07,-0.47,-120.00,25.27,-8.73
6,11,19,-0.89,0.07,-0.47,-120.00,25.27,-8.73
6,11,19,-0.87,0.07,-0.49,-102.42,14.28,-0.79
6,11,19,-0.86,0.07,-0.47,-87.04,7.75,6.59
6,11,19,-0.85,0.01,-0.41,-77.94,-1.77,11.54
6,11,18,-0.85,0.01,-0.41,-76.17,-13.92,14.04
5,11,18,-0.85,-0.02,-0.36,-76.17,-13.92,14.04
5,11,18,-0.84,-0.02,-0.32,-78.98,-19.78,14.47
5,11,18,-0.82,0.04,-0.30,-83.37,-17.15,13.31
5,11,18,-0.83,0.11,-0.27,-86.91,-10.31,10.31
5,11,18,-0.83,0.21,-0.23,-87.83,-3.54,5.92
5,11,18,-0.83,0.21,-0.23,-87.83,-3.54,5.92
4,11,18,-0.82,0.28,-0.20,-86.12,1.22,1.71
4,11,18,-0.84,0.28,-0.17,-84.11,0.61,-1.89
4,11,18,-0.89,0.20,-0.15,-84.72,-3.91,-3.91
4,11,18,-0.89,0.20,-0.15,-88.44,-5.25,-5.49
4,11,18,-0.91,0.09,-0.14,-88.44,-5.25,-5.49
4,11,18,-0.88,0.01,-0.14,-94.73,-2.56,-6.65
4,11,18,-0.87,-0.02,-0.17,-104.25,0.18,-7.93
4,11,18,-0.87,-0.01,-0.22,-112.98,0.49,-8.36
4,11,18,-0.86,-0.00,-0.24,-117.49,-0.73,-7.81
4,12,18,-0.86,-0.00,-0.24,-117.49,-0.73,-7.81
4,12,18,-0.87,0.02,-0.24,-116.94,-1.59,-5.68
4,12,18,-0.89,0.03,-0.24,-114.87,-1.83,-3.36
4,12,18,-0.92,0.04,-0.25,-114.32,-2.20,-1.34
4,12,18,-0.94,0.05,-0.25,-114.01,-1.16,0.92
4,12,18,-0.94,0.05,-0.25,-114.01,-1.16,0.92
3,12,18,-0.96,0.08,-0.26,-112.98,0.06,2.62
3,13,18,-0.99,0.11,-0.28,-111.15,0.12,3.85
2,14,18,-1.02,0.11,-0.30,-107.30,-0.43,4.94
2,15,18,-1.04,0.11,-0.30,-101.32,-1.46,5.86
2,15,18,-1.04,0.11,-0.30,-101.32,-1.46,5.86
1,15,17,-1.06,0.11,-0.31,-96.31,-3.42,6.59
1,15,15,-1.04,0.12,-0.31,-94.42,-5.13,6.23
1,15,12,-1.02,0.13,-0.31,-90.33,-7.57,5.86
0,16,8,-0.98,0.15,-0.30,-87.46,-11.17,5.68
-1,16,4,-0.98,0.15,-0.30,-87.46,-11.17,5.68
-1,16,1,-0.96,0.17,-0.30,-84.59,-16.24,5.74
-1,16,-2,-0.94,0.19,-0.30,-82.21,-20.75,5.92
-2,16,-3,-0.90,0.20,-0.29,-79.28,-23.68,5.98
-2,16,-4,-0.88,0.22,-0.27,-75.13,-25.82,6.23
-2,16,-5,-0.88,0.22,-0.27,-70.68,-28.26,6.84
-2,17,-5,-0.88,0.23,-0.26,-70.68,-28.26,6.84
-2,16,-6,-0.93,0.24,-0.25,-66.53,-31.07,7.75
-3,16,-6,-0.99,0.23,-0.25,-62.87,-34.00,8.42
-3,16,-7,-1.08,0.20,-0.25,-61.16,-35.40,8.06
-3,16,-8,-1.17,0.14,-0.25,-62.50,-35.64,6.47
-3,16,-9,-1.17,0.14,-0.25,-62.50,-35.64,6.47
-3,16,-10,-1.25,0.08,-0.24,-65.86,-35.03,4.21
-3,16,-10,-1.29,0.00,-0.24,-70.25,-35.83,1.71
-3,16,-10,-1.27,-0.04,-0.21,-74.65,-39.43,-1.04
-3,16,-10,-1.23,-0.04,-0.17,-77.64,-46.08,-2.50
-3,16,-10,-1.17,-0.00,-0.13,-78.00,-53.83,-2.99
-3,16,-10,-1.17,-0.00,-0.13,-78.00,-53.83,-2.99
-3,16,-10,-1.08,0.06,-0.10,-75.38,-59.63,-3.11
-3,16,-10,-1.06,0.04,-0.08,-71.17,-62.93,-3.48
-3,16,-10,-1.00,0.01,-0.05,-67.69,-61.65,-3.72
-3,16,-10,-0.96,-0.02,-0.03,-64.03,-56.46,-3.48
-3,16,-10,-0.91,-0.05,-0.01,-60.61,-49.38,-3.66
-2,16,-10,-0.91,-0.05,-0.01,-60.61,-49.38,-3.66
-2,15,-10,-0.91,-0.07,0.02,-57.13,-41.63,-4.39
-2,15,-10,-0.93,-0.08,0.03,-53.77,-36.44,-5.37
-2,15,-10,-0.90,-0.15,0.05,-52.37,-34.67,-6.47
-2,15,-10,-0.94,-0.23,0.06,-55.79,-32.78,-7.39
-2,15,-10,-1.00,-0.28,0.01,-61.40,-28.63,-6.10
-2,15,-10,-1.00,-0.28,0.01,-66.35,-25.76,-4.33
-1,14,-10,-1.00,-0.28,-0.06,-66.35,-25.76,-4.33
-1,14,-10,-1.06,-0.30,-0.15,-65.86,-25.09,-2.50
-1,14,-10,-1.10,-0.28,-0.18,-57.92,-22.58,-1.04
-1,14,-10,-1.15,-0.22,-0.13,-43.58,-19.04,1.59
-1,14,-10,-1.21,-0.16,-0.06,-32.35,-14.71,3.42
-1,14,-10,-1.23,-0.14,-0.00,-25.76,-9.16,4.03
-1,14,-10,-1.23,-0.14,-0.00,-25.76,-9.16,4.03
-1,14,-10,-1.26,-0.13,0.02,-25.57,-4.58,2.93
-1,14,-10,-1.25,-0.12,0.02,-28.69,1.22,1.16
-1,13,-10,-1.18,-0.17,-0.02,-31.07,12.08,-0.67
-1,13,-10,-1.13,-0.18,-0.09,-30.82,14.40,-1.83
-1,13,-10,-1.13,-0.18,-0.09,-31.56,12.15,-1.71
0,13,-9,-1.07,-0.14,-0.18,-31.56,12.15,-1.71
0,13,-9,-1.02,-0.17,-0.22,-25.70,12.57,-0.85
1,13,-9,-1.01,-0.20,-0.25,-23.19,8.48,-0.12
1,13,-9,-0.97,-0.18,-0.27,-26.12,2.26,0.06
2,13,-9,-0.96,-0.17,-0.26,-25.57,-1.71,0.73
2,13,-9,-0.96,-0.17,-0.26,-25.57,-1.71,0.73
3,13,-9,-0.92,-0.18,-0.21,-22.28,-3.48,1.53
3,13,-9,-0.88,-0.21,-0.18,-21.36,-5.31,1.77
4,13,-9,-0.89,-0.22,-0.17,-25.09,-8.85,1.16
4,13,-8,-0.87,-0.21,-0.17,-30.52,-11.90,-0.06
4,13,-8,-0.87,-0.21,-0.17,-32.71,-12.21,-0.92
5,13,-7,-0.86,-0.21,-0.16,-32.71,-12.21,-0.92
5,13,-7,-0.86,-0.20,-0.14,-32.17,-12.15,-1.22
5,13,-6,-0.87,-0.22,-0.14,-30.15,-12.39,-1.22
6,13,-6,-0.87,-0.19,-0.13,-30.88,-12.27,-1.65
6,13,-6,-0.87,-0.15,-0.11,-27.59,-11.47,-0.92
7,12,-4,-0.87,-0.15,-0.11,-18.25,-10.68,-0.12
7,12,-2,-0.91,-0.16,-0.09,-18.25,-10.68,-0.12
7,12,-1,-0.93,-0.19,-0.05,-12.51,-7.75,-0.12
7,12,-1,-0.94,-0.18,-0.02,-10.68,-4.58,-0.98
7,12,-1,-0.96,-0.17,-0.01,-11.41,0.06,-2.44
7,12,-1,-0.97,-0.17,-0.00,-13.24,4.58,-4.15
7,11,-1,-0.97,-0.17,-0.00,-15.63,9.16,-6.35
8,11,-1,-0.98,-0.17,-0.01,-15.63,9.16,-6.35
8,11,-1,-1.00,-0.18,-0.02,-19.29,12.63,-8.91
9,11,-1,-1.00,-0.20,-0.03,-22.03,15.69,-11.23
9,11,-1,-1.00,-0.21,-0.04,-25.76,17.76,-13.61
10,10,-1,-0.99,-0.22,-0.05,-29.48,19.59,-15.75
10,10,0,-0.99,-0.22,-0.05,-29.48,19.59,-15.75
10,9,0,-1.00,-0.20,-0.08,-32.71,20.14,-17.40
10,9,0,-1.00,-0.20,-0.09,-34.18,19.35,-18.19
10,9,0,-1.00,-0.19,-0.10,-34.00,17.40,-18.31
10,9,1,-0.99,-0.19,-0.12,-34.42,15.69,-18.19
10,9,1,-0.99,-0.19,-0.12,-34.42,15.69,-18.19
10,9,1,-0.98,-0.20,-0.12,-33.75,13.67,-17.58
10,9,1,-0.98,-0.21,-0.13,-33.57,10.19,-16.78
11,9,1,-0.98,-0.22,-0.14,-33.94,6.04,-15.38
11,9,1,-0.98,-0.21,-0.15,-32.47,2.93,-13.31
11,9,2,-0.98,-0.21,-0.15,-32.47,2.93,-13.31
11,9,3,-0.98,-0.19,-0.16,-30.52,1.34,-11.23
11,9,4,-0.97,-0.18,-0.16,-28.32,0.00,-9.34
11,9,5,-0.98,-0.16,-0.17,-26.92,-1.53,-7.45
11,9,5,-0.97,-0.16,-0.17,-25.09,-2.14,-6.23
11,9,6,-0.97,-0.16,-0.17,-23.56,-2.50,-5.55
11,9,6,-0.97,-0.17,-0.18,-23.56,-2.50,-5.55
11,9,6,-0.97,-0.19,-0.18,-22.64,-3.66,-4.94
11,9,7,-0.97,-0.20,-0.19,-23.13,-4.76,-4.76
11,9,8,-0.98,-0.20,-0.19,-23.93,-5.13,-4.76
11,9,9,-0.99,-0.19,-0.21,-24.72,-5.49,-4.46
11,10,11,-0.99,-0.19,-0.21,-24.72,-5.49,-4.46
11,10,14,-1.02,-0.17,-0.23,-24.96,-6.77,-4.09
11,10,16,-1.05,-0.15,-0.25,-24.48,-8.24,-3.54
11,10,17,-1.09,-0.15,-0.26,-22.64,-10.31,-2.93
10,10,17,-1.11,-0.15,-0.28,-19.35,-14.28,-1.59
10,10,18,-1.11,-0.15,-0.28,-15.75,-18.25,0.37
10,11,18,-1.11,-0.14,-0.29,-15.75,-18.25,0.37
10,11,18,-1.12,-0.14,-0.28,-10.86,-21.42,2.81
10,11,18,-1.10,-0.14,-0.26,-5.49,-24.17,5.37
10,11,19,-1.07,-0.15,-0.23,-0.18,-27.77,7.63
10,11,20,-1.05,-0.16,-0.21,1.71,-30.15,9.16
10,11,20,-1.05,-0.16,-0.21,1.71,-30.15,9.16
10,11,21,-1.04,-0.17,-0.18,2.32,-29.66,10.13
10,11,21,-1.03,-0.15,-0.16,0.79,-27.10,10.13
10,11,21,-0.98,-0.15,-0.13,-2.26,-23.44,9.95
9,11,22,-0.98,-0.15,-0.13,-6.84,-20.14,8.73
9,11,22,-0.95,-0.14,-0.14,-6.84,-20.14,8.73
9,11,22,-0.96,-0.10,-0.16,-12.82,-18.80,6.96
9,11,22,-0.95,-0.08,-0.16,-14.47,-17.33,5.74
9,11,22,-0.95,-0.08,-0.16,-12.15,-15.20,5.19
9,11,23,-0.94,-0.08,-0.17,-8.18,-13.61,5.13
9,11,23,-0.94,-0.08,-0.17,-8.18,-13.61,5.13
9,11,23,-0.95,-0.06,-0.17,-4.94,-13.43,5.07
9,11,23,-0.97,-0.06,-0.16,-4.39,-11.54,3.91
9,10,23,-0.97,-0.06,-0.15,-4.88,-10.07,2.56
9,10,23,-0.99,-0.07,-0.14,-8.18,-9.52,0.98
8,10,24,-0.99,-0.07,-0.14,-8.18,-9.52,0.98
8,10,25,-1.00,-0.08,-0.15,-13.67,-8.06,-1.22
8,10,26,-1.02,-0.09,-0.16,-18.98,-5.80,-2.93
7,10,27,-1.03,-0.09,-0.17,-22.09,-4.03,-3.78
7,10,28,-1.05,-0.10,-0.20,-22.34,-3.17,-4.09
7,10,29,-1.05,-0.10,-0.20,-20.14,-2.75,-3.78
7,10,30,-1.06,-0.12,-0.21,-20.14,-2.75,-3.78
7,10,31,-1.06,-0.14,-0.22,-16.36,-2.44,-3.11
7,10,31,-1.04,-0.17,-0.23,-12.33,-2.38,-1.95
7,10,32,-1.03,-0.19,-0.23,-8.54,-2.75,-0.37
7,10,32,-1.02,-0.19,-0.23,-5.37,-3.05,1.40
7,10,32,-1.02,-0.19,-0.23,-5.37,-3.05,1.40
7,10,33,-1.01,-0.19,-0.22,-3.54,-2.01,2.69
7,10,33,-1.01,-0.18,-0.21,-2.62,0.06,3.60
7,10,33,-1.01,-0.17,-0.19,-2.69,2.75,3.48
7,10,33,-1.01,-0.16,-0.18,-4.15,5.55,2.56
7,10,33,-1.01,-0.16,-0.18,-4.15,5.55,2.56
7,10,34,-1.01,-0.13,-0.18,-7.63,7.69,1.28
7,10,35,-1.01,-0.11,-0.19,-11.11,7.75,-0.49
7,10,36,-1.01,-0.10,-0.21,-14.65,5.68,-2.32
7,10,36,-1.01,-0.09,-0.23,-18.37,2.38,-3.54
7,10,36,-1.01,-0.09,-0.23,-18.37,2.38,-3.54
7,10,36,-1.01,-0.09,-0.24,-21.36,-0.79,-4.64
7,11,36,-1.00,-0.10,-0.25,-24.96,-2.44,-5.92
7,11,36,-1.01,-0.13,-0.23,-25.94,-4.15,-6.71
7,11,37,-1.02,-0.15,-0.21,-25.57,-6.29,-7.26
7,11,37,-1.02,-0.15,-0.21,-24.66,-6.96,-7.57
7,11,37,-1.03,-0.17,-0.19,-24.66,-6.96,-7.57
7,11,37,-1.03,-0.17,-0.17,-22.64,-5.62,-7.32
7,11,37,-1.06,-0.18,-0.16,-19.65,-4.21,-6.65
7,11,37,-1.04,-0.18,-0.13,-15.20,-2.32,-5.55
7,11,37,-1.04,-0.17,-0.13,-12.02,0.06,-4.88
7,11,37,-1.04,-0.17,-0.13,-11.60,1.28,-4.64
7,11,37,-1.05,-0.17,-0.13,-11.60,1.28,-4.64
8,10,37,-1.05,-0.16,-0.13,-11.90,4.03,-4.88
8,10,37,-1.04,-0.16,-0.12,-11.29,8.12,-5.25
8,10,37,-1.03,-0.15,-0.13,-12.82,11.84,-6.10
8,10,37,-1.03,-0.15,-0.13,-14.10,14.65,-7.14
8,10,37,-1.03,-0.15,-0.14,-14.10,14.65,-7.14
8,9,38,-1.02,-0.16,-0.15,-16.24,16.97,-8.24
8,9,38,-1.01,-0.16,-0.17,-18.62,18.49,-9.52
8,9,38,-0.99,-0.17,-0.19,-20.69,19.23,-10.74
8,9,38,-0.97,-0.17,-0.21,-22.46,19.23,-11.66
9,9,38,-0.97,-0.17,-0.21,-22.46,19.23,-11.66
9,9,39,-0.95,-0.17,-0.23,-24.11,18.80,-12.76
9,9,39,-0.93,-0.16,-0.25,-25.94,17.82,-13.55
9,9,39,-0.91,-0.15,-0.26,-27.47,16.42,-14.22
9,9,39,-0.90,-0.15,-0.27,-28.44,15.20,-14.83
9,9,39,-0.90,-0.15,-0.27,-28.44,15.20,-14.83
9,10,39,-0.89,-0.14,-0.26,-29.36,13.49,-15.44
9,10,39,-0.89,-0.13,-0.26,-29.54,11.78,-15.56
9,10,40,-0.88,-0.11,-0.25,-29.11,10.50,-15.44
9,10,40,-0.88,-0.09,-0.24,-26.79,9.46,-15.08
9,10,40,-0.88,-0.09,-0.24,-23.50,8.18,-14.40
9,10,40,-0.88,-0.07,-0.23,-23.50,8.18,-14.40
9,11,41,-0.89,-0.05,-0.23,-20.39,7.26,-13.55
9,11,41,-0.92,-0.02,-0.23,-17.82,6.96,-12.70
9,12,41,-0.95,0.01,-0.24,-16.11,7.08,-12.45
8,12,41,-0.98,0.02,-0.25,-15.20,7.69,-12.45
8,12,41,-0.98,0.02,-0.25,-15.20,7.69,-12.45
8,12,41,-1.02,0.03,-0.26,-14.28,7.93,-12.39
8,13,41,-1.06,0.03,-0.28,-13.37,6.47,-12.27
8,13,41,-1.09,0.02,-0.29,-13.00,3.42,-12.08
8,14,41,-1.12,0.01,-0.30,-12.57,0.79,-11.54
8,14,41,-1.12,0.01,-0.30,-12.57,0.79,-11.54
8,14,41,-1.14,0.01,-0.31,-12.76,-0.67,-11.05
7,14,41,-1.16,0.01,-0.32,-12.88,-1.16,-10.80
6,14,41,-1.17,0.02,-0.32,-12.57,-0.61,-10.99
4,14,40,-1.17,0.02,-0.31,-11.66,-0.24,-11.11
3,14,26,-1.17,0.02,-0.31,-11.66,-0.24,-11.11
3,14,14,-1.18,0.02,-0.30,-11.35,0.24,-11.66
2,14,14,-1.16,-0.00,-0.29,-11.05,1.89,-12.45
2,14,14,-1.14,-0.01,-0.27,-11.66,2.99,-13.61
1,14,14,-1.11,-0.03,-0.26,-12.15,3.23,-14.53
1,14,14,-1.11,-0.03,-0.26,-12.15,3.23,-14.53
1,14,14,-1.09,-0.05,-0.24,-12.94,4.27,-15.50
1,14,14,-1.06,-0.05,-0.23,-14.47,7.57,-16.30
1,14,14,-1.03,-0.04,-0.23,-16.11,11.60,-16.85
1,14,14,-1.01,-0.03,-0.24,-18.19,14.77,-17.15
1,14,14,-1.01,-0.03,-0.24,-18.19,14.77,-17.15
1,14,14,-0.97,-0.01,-0.25,-20.08,17.27,-17.46
1,14,14,-0.94,-0.01,-0.25,-22.09,18.98,-17.82
1,14,15,-0.90,-0.00,-0.25,-23.74,20.39,-18.19
1,14,17,-0.87,-0.00,-0.26,-24.90,20.45,-18.31
1,14,18,-0.87,-0.00,-0.26,-24.41,19.23,-17.82
1,14,19,-0.85,-0.00,-0.28,-24.41,19.23,-17.82
1,14,19,-0.85,0.01,-0.29,-22.28,17.15,-16.78
1,14,19,-0.85,0.02,-0.30,-18.68,14.53,-15.08
1,14,19,-0.86,0.04,-0.29,-14.95,12.08,-13.31
1,14,19,-0.86,0.04,-0.29,-11.78,9.83,-11.35
1,14,19,-0.88,0.04,-0.28,-11.78,9.83,-11.35
1,14,19,-0.91,0.05,-0.25,-8.97,8.61,-9.22
0,15,19,-0.93,0.06,-0.23,-6.53,7.81,-7.32
0,14,19,-0.97,0.07,-0.21,-4.33,6.35,-5.37
0,14,19,-0.97,0.07,-0.21,-1.71,4.94,-3.54
0,14,19,-0.99,0.08,-0.19,-1.71,4.94,-3.54
0,14,19,-1.00,0.09,-0.18,0.37,4.58,-2.14
0,14,18,-1.03,0.09,-0.17,1.89,4.21,-1.04
0,14,18,-1.05,0.07,-0.18,3.11,3.85,-0.43
-1,14,18,-1.05,0.07,-0.18,3.11,3.85,-0.43
-1,14,17,-1.07,0.05,-0.19,3.36,4.88,-0.49
-1,14,16,-1.09,0.03,-0.20,2.69,7.32,-0.92
-1,14,15,-1.09,0.03,-0.21,0.43,9.70,-1.40
-1,14,14,-1.08,0.04,-0.24,-3.23,11.17,-2.26
-1,14,13,-1.08,0.04,-0.24,-3.23,11.17,-2.26
-1,14,13,-1.07,0.04,-0.25,-5.68,12.70,-2.93
-1,14,12,-1.06,0.04,-0.24,-6.04,14.71,-3.23
-1,14,12,-1.02,0.04,-0.23,-5.07,17.33,-3.23
-1,13,11,-1.02,0.06,-0.22,-4.15,19.10,-3.11
-1,13,9,-1.02,0.06,-0.22,-4.15,19.10,-3.11
-2,13,5,-1.00,0.07,-0.22,-2.56,20.63,-2.69
-2,13,3,-0.97,0.08,-0.21,-1.22,23.25,-2.20
-2,13,2,-0.96,0.08,-0.21,-0.67,25.27,-1.83
-2,13,2,-0.97,0.09,-0.23,-0.61,26.37,-1.53
-2,13,1,-0.97,0.09,-0.23,0.37,27.65,-0.98
-2,13,0,-0.99,0.08,-0.25,0.37,27.65,-0.98
-2,13,-1,-1.02,0.07,-0.28,2.38,28.63,0.06
-2,13,-2,-1.06,0.05,-0.30,5.55,28.38,1.22
-2,13,-3,-1.10,0.03,-0.32,9.34,26.67,2.50
-2,13,-4,-1.10,0.03,-0.32,9.34,26.67,2.50
-2,13,-4,-1.12,-0.01,-0.30,13.98,23.19,3.54
-2,13,-4,-1.11,-0.06,-0.28,17.27,19.90,3.85
-2,13,-4,-1.08,-0.10,-0.23,19.53,16.30,3.48
-2,13,-4,-1.06,-0.12,-0.18,20.81,12.08,3.54
-2,13,-4,-1.06,-0.12,-0.18,22.16,8.30,3.48
-2,13,-4,-1.06,-0.13,-0.13,22.16,8.30,3.48
-2,13,-4,-1.09,-0.14,-0.09,24.29,5.43,3.42
-2,13,-4,-1.12,-0.15,-0.04,26.12,4.39,3.05
-2,13,-4,-1.13,-0.16,0.01,25.45,4.15,2.20
-2,13,-4,-1.13,-0.16,0.01,21.55,3.05,0.55
-2,13,-4,-1.10,-0.15,0.07,21.55,3.05,0.55
-1,13,-4,-1.06,-0.14,0.12,17.15,1.53,-1.22
-1,13,-4,-1.03,-0.14,0.14,12.63,0.31,-3.17
0,13,-4,-1.02,-0.16,0.16,8.48,-0.12,-5.00
2,13,-4,-1.02,-0.16,0.16,6.10,1.22,-6.96
3,13,-4,-1.00,-0.18,0.15,6.10,1.22,-6.96
3,13,-4,-1.00,-0.20,0.14,7.81,1.16,-7.75
4,13,-4,-1.04,-0.22,0.12,10.50,1.34,-7.87
4,13,-4,-1.06,-0.24,0.11,11.23,4.88,-8.18
4,12,-4,-1.06,-0.24,0.11,8.79,9.03,-8.61
4,12,-4,-1.04,-0.18,0.11,8.79,9.03,-8.61
4,11,-5,-1.11,-0.22,0.10,7.45,10.01,-8.24
4,10,-5,-1.12,-0.18,0.10,1.10,11.41,-10.01
4,9,-5,-1.16,-0.14,0.06,-4.76,11.96,-11.05
5,9,-5,-1.16,-0.14,0.06,-4.76,11.96,-11.05
5,9,-5,-1.14,-0.12,0.04,-8.18,11.60,-11.72
5,8,-5,-1.10,-0.10,0.02,-9.22,11.35,-11.96
5,8,-5,-1.05,-0.10,-0.01,-8.54,9.03,-11.47
5,8,-5,-1.01,-0.09,-0.02,-5.31,6.23,-10.62
5,8,-5,-1.01,-0.09,-0.02,-2.62,3.48,-9.03
5,8,-5,-0.97,-0.13,-0.05,-2.62,3.48,-9.03
5,8,-5,-0.92,-0.13,-0.07,4.09,4.09,-6.10
5,8,-5,-0.90,-0.14,-0.05,12.76,7.08,-3.72
5,8,-5,-0.88,-0.15,0.00,16.97,7.57,-2.32
5,8,-5,-0.86,-0.15,0.05,14.89,6.77,-2.75
5,7,-5,-0.86,-0.15,0.05,14.89,6.77,-2.75
5,7,-5,-0.84,-0.17,0.07,10.50,6.53,-3.23
5,7,-5,-0.81,-0.15,0.09,7.14,9.64,-3.48
5,7,-5,-0.80,-0.15,0.08,4.58,11.90,-3.66
6,7,-5,-0.78,-0.14,0.07,3.60,13.37,-3.78
6,7,-5,-0.78,-0.14,0.07,3.60,13.37,-3.78
6,7,-5,-0.78,-0.12,0.04,4.52,12.94,-3.66
6,7,-5,-0.79,-0.10,0.04,6.41,12.45,-3.66
6,6,-5,-0.79,-0.07,0.08,11.35,14.89,-3.30
6,5,-6,-0.80,-0.08,0.11,15.87,15.75,-3.11
6,4,-6,-0.80,-0.08,0.11,15.87,15.75,-3.11
6,4,-6,-0.81,-0.08,0.12,16.42,15.14,-3.72
6,3,-6,-0.82,-0.09,0.11,14.59,14.28,-4.33
6,3,-6,-0.83,-0.10,0.09,13.06,12.63,-5.07
6,2,-6,-0.85,-0.09,0.08,12.27,9.64,-5.19
6,2,-6,-0.85,-0.09,0.08,12.27,9.64,-5.19
6,2,-6,-0.85,-0.08,0.09,12.94,6.84,-5.13
6,1,-7,-0.85,-0.09,0.10,13.73,5.13,-4.94
6,1,-8,-0.85,-0.10,0.10,13.92,3.72,-4.64
6,0,-9,-0.85,-0.10,0.10,12.70,2.81,-4.15
6,-1,-9,-0.85,-0.11,0.11,12.70,2.81,-4.15
6,-1,-11,-0.85,-0.11,0.10,13.18,2.87,-3.60
6,-2,-13,-0.85,-0.10,0.09,14.22,3.72,-3.11
6,-3,-15,-0.84,-0.11,0.09,15.32,3.97,-2.62
6,-3,-16,-0.84,-0.11,0.08,15.38,4.09,-2.26
7,-4,-16,-0.84,-0.11,0.08,15.38,4.09,-2.26
7,-4,-17,-0.84,-0.11,0.08,13.31,6.16,-2.14
7,-4,-17,-0.83,-0.11,0.09,11.72,7.63,-1.89
7,-4,-17,-0.82,-0.11,0.09,10.25,7.26,-1.83
7,-4,-18,-0.82,-0.09,0.08,7.26,6.10,-1.83
7,-5,-19,-0.82,-0.09,0.08,7.26,6.10,-1.83
7,-5,-20,-0.82,-0.07,0.07,3.78,5.62,-1.95
7,-5,-20,-0.82,-0.06,0.04,0.37,5.37,-2.20
7,-5,-21,-0.81,-0.04,0.01,-2.01,4.33,-2.44
7,-5,-21,-0.81,-0.04,-0.01,-2.38,2.50,-2.20
6,-5,-21,-0.81,-0.04,-0.01,-2.38,2.50,-2.20
6,-5,-21,-0.80,-0.04,-0.04,-0.73,0.49,-1.53
6,-5,-21,-0.77,-0.03,-0.04,2.08,-1.10,-0.79
6,-5,-21,-0.75,-0.02,-0.05,5.49,-1.95,-0.12
6,-5,-21,-0.71,-0.01,-0.06,9.40,-2.32,0.18
6,-4,-21,-0.67,-0.01,-0.06,12.27,-3.42,-0.24
6,-4,-20,-0.67,-0.01,-0.06,12.27,-3.42,-0.24
6,-4,-20,-0.63,-0.01,-0.07,15.01,-5.00,-0.67
6,-4,-20,-0.56,-0.01,-0.06,17.64,-6.04,-1.16
5,-4,-20,-0.48,-0.02,-0.07,20.02,-6.23,-2.20
5,-4,-20,-0.42,-0.04,-0.06,21.00,-6.71,-3.23
5,-4,-20,-0.36,-0.06,-0.06,21.18,-6.71,-4.82
5,-4,-20,-0.36,-0.06,-0.06,21.18,-6.71,-4.82
5,-3,-20,-0.32,-0.10,-0.06,21.36,-5.37,-6.71
5,-3,-20,-0.28,-0.10,-0.05,20.26,-3.60,-8.24
5,-3,-20,-0.18,-0.11,-0.06,19.04,-1.04,-9.22
5,-3,-20,-0.23,-0.14,-0.07,17.15,0.73,-9.09
5,-3,-20,-0.23,-0.14,-0.07,12.76,3.85,-9.64
5,-3,-20,-0.22,-0.13,-0.09,12.76,3.85,-9.64
5,-3,-20,-0.20,-0.14,-0.13,11.23,7.20,-10.01
5,-3,-20,-0.27,-0.21,-0.21,8.00,11.60,-10.38
5,-3,-19,-0.41,-0.33,-0.34,8.30,19.04,-11.11
6,-3,-19,-0.61,-0.48,-0.49,13.67,29.85,-11.72
6,-3,-18,-0.61,-0.48,-0.49,16.30,43.76,-10.99
6,-3,-18,-0.91,-0.51,-0.70,16.30,43.76,-10.99
6,-2,-18,-1.48,-0.55,-0.95,13.00,57.43,-7.02
6,-2,-18,-1.95,-0.24,-1.16,5.37,55.18,0.37
6,-2,-18,-1.84,-0.01,-1.22,-18.62,21.42,0.31
6,-2,-18,-1.59,0.73,-0.95,-57.92,-49.26,-4.27
6,-2,-18,-1.59,0.73,-0.95,-57.92,-49.26,-4.27
6,-2,-18,-1.77,1.24,-0.43,-66.83,-147.64,8.06
6,-2,-18,-1.82,1.10,0.10,-59.20,-215.58,11.41
6,-2,-18,-2.15,0.97,0.72,-51.09,-238.34,9.03
6,-2,-18,-2.54,0.52,1.48,-17.21,-238.10,2.56
6,-2,-18,-2.54,0.52,1.48,-17.70,-167.66,-4.70
6,-2,-18,-2.66,0.27,2.18,-17.70,-167.66,-4.70
6,-2,-18,-1.83,-0.23,1.03,-17.70,-28.93,-8.73
6,-2,-17,-1.59,-0.01,-0.13,-20.26,27.40,-1.40
6,-2,-17,-1.42,-0.02,-0.43,4.70,37.35,7.45
6,-2,-17,-1.41,0.05,-0.49,41.02,37.23,20.14
6,-2,-17,-1.41,0.05,-0.49,41.02,37.23,20.14
6,-2,-17,-1.27,0.12,-0.38,56.21,38.33,27.10
6,-2,-17,-1.25,0.27,-0.24,59.14,22.16,29.42
6,-2,-17,-1.28,0.37,-0.17,60.18,1.10,30.46
6,-2,-17,-1.27,0.39,-0.10,64.27,-10.99,30.33
5,-2,-17,-1.27,0.39,-0.10,64.27,-10.99,30.33
5,-2,-17,-1.19,0.28,-0.04,70.62,-14.22,31.56
5,-2,-17,-1.11,0.19,-0.04,71.78,-15.56,33.39
5,-2,-17,-1.04,0.15,-0.11,68.79,-13.73,34.97
5,-2,-18,-1.01,0.12,-0.17,70.13,-8.85,36.87
5,-2,-18,-1.01,0.12,-0.17,70.13,-8.85,36.87
5,-1,-18,-0.94,0.08,-0.14,74.52,-1.71,37.72
5,-1,-18,-0.87,0.05,-0.12,73.67,9.22,36.68
5,-1,-18,-0.78,0.04,-0.14,66.65,18.55,34.42
5,-1,-18,-0.69,0.05,-0.17,59.94,24.17,31.98
5,-1,-18,-0.69,0.05,-0.17,59.94,24.17,31.98
5,0,-18,-0.63,0.03,-0.19,55.54,26.43,30.27
5,0,-18,-0.54,0.01,-0.16,55.11,29.66,29.05
4,0,-18,-0.44,0.03,-0.16,56.46,35.71,28.14
4,0,-18,-0.44,-0.05,-0.13,58.59,40.77,27.10
4,0,-18,-0.44,-0.05,-0.13,58.59,40.77,27.10
4,0,-18,-0.36,-0.09,-0.09,55.73,46.14,23.25
4,1,-18,-0.34,-0.14,-0.05,51.57,47.97,19.59
4,1,-18,-0.31,-0.17,-0.03,43.88,48.46,16.60
4,1,-18,-0.30,-0.16,-0.03,27.95,44.92,12.33
4,1,-18,-0.30,-0.16,-0.03,27.95,44.92,12.33
4,1,-18,-0.34,-0.15,-0.07,15.69,44.37,6.84
4,1,-18,-0.38,-0.18,-0.14,9.34,49.68,2.20
4,1,-18,-0.45,-0.22,-0.27,5.07,57.43,-1.65
4,1,-18,-0.61,-0.40,-0.47,4.82,65.73,-3.54
