roll,pitch,yaw,ax,ay,az,gx,gy,gz
-5,-4,27,-0.86,0.19,0.04,-2.87,-9.03,-8.91
-5,-4,27,-0.89,0.2,0.02,-1.46,-8.24,-8.12
-5,-4,27,-0.93,0.21,0,2.14,-8.3,-7.02
-6,-4,27,-0.99,0.22,0.01,8.18,-8.97,-5.68
-6,-4,27,-1.04,0.2,0.05,13.43,-10.07,-4.7
-6,-4,27,-1.04,0.2,0.05,16.66,-10.93,-4.09
-7,-4,27,-1.08,0.18,0.11,16.66,-10.93,-4.09
-7,-4,27,-1.12,0.17,0.14,16.91,-11.05,-3.91
-7,-4,27,-1.14,0.16,0.14,14.34,-8.91,-4.27
-7,-4,27,-1.14,0.14,0.12,10.19,-5.43,-4.7
-7,-4,27,-1.14,0.14,0.12,7.57,-1.59,-4.39
-7,-4,27,-1.14,0.15,0.08,7.57,-1.59,-4.39
-7,-4,27,-1.13,0.17,0.06,6.9,1.28,-3.97
-7,-4,27,-1.11,0.18,0.04,6.96,3.6,-3.54
-7,-4,27,-1.1,0.19,0.04,8.24,5.92,-3.23
-7,-4,27,-1.1,0.19,0.04,9.52,7.93,-2.99
-7,-4,27,-1.07,0.19,0.03,9.52,7.93,-2.99
-7,-4,27,-1.06,0.2,0.02,10.86,9.52,-3.05
-7,-4,27,-1.03,0.18,0.01,12.82,10.25,-2.99
-7,-4,27,-1.02,0.17,0,15.5,10.31,-2.81
-8,-4,27,-1.02,0.17,0,17.7,9.83,-2.56
-8,-3,27,-1,0.14,0,17.7,9.83,-2.56
-8,-3,27,-0.99,0.14,-0.01,18.07,9.4,-2.87
-8,-3,27,-0.97,0.12,-0.01,19.78,9.4,-2.62
-8,-3,26,-0.96,0.11,-0.01,22.64,10.01,-2.14
-8,-3,26,-0.96,0.11,-0.01,23.44,10.07,-1.71
-8,-2,26,-0.95,0.1,-0.01,23.44,10.07,-1.71
-8,-2,26,-0.94,0.1,-0.01,23.44,9.83,-1.34
-8,-1,25,-0.94,0.1,-0.02,23.62,10.38,-1.28
-7,-1,25,-0.93,0.08,-0.01,24.41,11.29,-1.16
-7,0,24,-0.93,0.08,-0.01,22.52,11.17,-0.98
-7,0,22,-0.92,0.09,-0.01,22.52,11.17,-0.98
-7,0,20,-0.93,0.1,-0.02,21.18,9.52,-0.61
-7,0,16,-0.94,0.1,-0.02,21.18,8.97,0
-7,0,12,-0.94,0.1,-0.01,22.34,8.79,0.43
-6,0,9,-0.94,0.1,-0.01,22.34,8.79,0.43
-6,0,8,-0.96,0.09,0,23.8,8.42,0.92
-6,0,8,-0.96,0.08,0,24.78,8.85,1.53
-6,0,8,-0.97,0.08,0.01,24.9,9.7,1.77
-6,0,8,-0.97,0.08,0.01,24.11,10.07,1.65
-6,0,8,-0.96,0.07,0,24.11,10.07,1.65
-5,0,8,-0.96,0.08,0,22.83,9.89,1.59
-5,0,8,-0.97,0.08,-0.02,22.22,9.46,1.46
-5,0,8,-0.97,0.08,-0.02,22.28,8.42,1.71
-5,0,8,-0.97,0.08,-0.02,22.28,8.42,1.71
-5,0,8,-0.98,0.08,-0.02,22.71,7.14,2.44
-5,0,8,-1,0.09,0,23.93,5.92,3.17
-5,0,7,-1.03,0.09,0,24.29,5.49,3.72
-5,0,7,-1.03,0.09,0,24.29,5.49,3.72
-5,0,7,-1.04,0.08,0.01,24.29,6.29,4.27
-5,0,7,-1.05,0.08,0,24.72,7.51,4.76
-4,0,7,-1.05,0.08,-0.01,25.57,8.36,5.31
-4,0,7,-1.05,0.08,-0.01,26.12,9.28,6.16
-4,0,7,-1.04,0.07,-0.02,26.12,9.28,6.16
-4,0,7,-1.03,0.06,-0.02,26.37,10.07,7.08
-4,0,7,-1.01,0.05,-0.03,26.12,10.13,7.63
-4,0,7,-1,0.04,-0.04,26.55,10.25,8.48
-4,1,7,-1,0.04,-0.04,26.55,10.25,8.48
-4,1,7,-0.99,0.03,-0.04,26.92,10.38,9.28
-4,1,7,-0.98,0.03,-0.04,27.22,10.8,9.89
-4,1,7,-0.98,0.02,-0.04,27.1,11.05,10.8
-4,1,7,-0.98,0.02,-0.04,27.04,11.54,11.41
-4,1,7,-0.97,0.02,-0.04,27.04,11.54,11.41
-4,1,7,-0.97,0.01,-0.05,26.61,11.47,11.9
-4,1,7,-0.96,0.01,-0.05,26.67,11.72,12.39
-4,1,7,-0.95,0.01,-0.05,25.88,12.39,12.33
-3,2,7,-0.95,0.01,-0.05,25.88,12.39,12.33
-3,2,7,-0.95,0,-0.06,25.45,12.45,12.15
-3,2,7,-0.95,0,-0.06,24.6,11.6,12.21
-2,2,7,-0.94,0,-0.07,23.99,10.62,11.96
-2,2,7,-0.94,0,-0.07,23.01,9.4,11.84
-2,2,7,-0.93,-0.02,-0.07,23.01,9.4,11.84
-1,3,7,-0.94,0,-0.06,22.16,7.87,11.84
-1,3,7,-0.96,-0.01,-0.06,21.55,6.04,11.72
-1,3,7,-0.95,-0.02,-0.05,19.96,5.92,11.29
-1,3,7,-0.95,-0.02,-0.05,19.96,5.92,11.29
-1,3,7,-0.96,-0.03,-0.04,19.96,5.8,11.23
0,3,7,-0.97,-0.03,-0.03,18.74,5.43,11.17
0,3,7,-0.97,-0.02,-0.03,17.03,5.68,10.93
0,3,7,-0.97,-0.02,-0.03,15.93,6.41,10.8
0,3,7,-0.97,-0.03,-0.03,15.93,6.41,10.8
0,3,7,-0.98,-0.03,-0.04,15.08,7.14,10.93
0,3,7,-0.99,-0.03,-0.04,14.47,7.08,10.93
1,2,7,-0.99,-0.03,-0.04,14.95,6.77,11.29
1,2,7,-0.99,-0.03,-0.04,14.95,6.77,11.29
1,2,8,-1.01,0,-0.04,16.11,6.23,11.84
1,2,8,-1.03,0.01,-0.03,16.97,5.74,12.15
1,2,8,-1.04,0.02,-0.04,16.72,5.8,12.21
1,2,8,-1.04,0.02,-0.04,16.72,5.8,12.21
1,2,8,-1.06,0.02,-0.04,17.7,5.43,12.76
1,2,8,-1.07,0.02,-0.05,19.17,5.37,13.43
1,2,8,-1.08,0.02,-0.06,21.12,6.1,14.34
1,2,8,-1.08,0.02,-0.06,21.12,6.1,14.34
1,2,8,-1.09,0.01,-0.07,23.07,6.71,15.2
0,2,8,-1.1,0.01,-0.07,24.6,6.84,16.05
0,2,8,-1.11,0.01,-0.07,26.06,6.96,16.85
0,2,8,-1.11,0.01,-0.07,27.71,7.32,17.52
0,2,8,-1.1,0,-0.08,27.71,7.32,17.52
0,2,8,-1.1,-0.01,-0.08,28.99,7.2,18.25
0,3,8,-1.09,-0.02,-0.09,30.27,6.77,19.17
0,3,8,-1.09,-0.02,-0.09,31.25,6.41,19.9
0,3,8,-1.08,-0.03,-0.09,31.25,6.41,19.9
0,3,8,-1.07,-0.03,-0.1,31.8,6.29,20.57
0,3,8,-1.06,-0.04,-0.1,32.84,5.8,21.42
0,3,8,-1.06,-0.02,-0.11,34.24,5.19,22.4
1,4,8,-1.06,-0.02,-0.11,34.24,5.19,22.4
1,4,8,-1.07,-0.02,-0.11,35.71,4.76,23.32
1,4,8,-1.07,-0.02,-0.11,36.74,3.6,24.05
1,4,9,-1.06,-0.03,-0.11,37.35,2.75,24.54
1,4,11,-1.06,-0.03,-0.11,38.82,2.2,25.09
1,4,13,-1.05,-0.05,-0.11,38.82,2.2,25.09
1,4,14,-1.04,-0.07,-0.1,40.34,0.85,25.45
1,5,14,-1.03,-0.07,-0.09,40.22,-0.85,25.57
1,5,14,-1.04,-0.07,-0.09,39.55,-3.36,25.33
1,5,14,-1.04,-0.07,-0.09,39.55,-3.36,25.33
1,5,15,-1.07,-0.08,-0.1,39.25,-6.35,25.39
2,5,15,-1.1,-0.08,-0.1,39.61,-10.13,25.45
2,5,15,-1.13,-0.08,-0.08,42.18,-14.71,26.06
2,5,15,-1.15,-0.11,-0.04,45.78,-19.53,26.67
2,5,15,-1.15,-0.11,-0.04,45.78,-19.53,26.67
2,5,15,-1.17,-0.14,0.01,47.49,-24.72,26.79
2,5,15,-1.17,-0.17,0.08,47.36,-29.91,26.73
2,5,15,-1.15,-0.18,0.14,45.72,-32.47,25.88
2,4,15,-1.15,-0.18,0.14,44.01,-31.86,25.02
2,4,15,-1.13,-0.2,0.2,44.01,-31.86,25.02
2,4,15,-1.07,-0.23,0.23,41.75,-27.59,23.93
3,4,15,-1.01,-0.24,0.24,38.02,-21.79,22.58
3,4,15,-0.97,-0.25,0.23,34,-16.3,21.06
3,4,15,-0.97,-0.25,0.23,34,-16.3,21.06
3,4,15,-0.94,-0.26,0.22,29.79,-11.72,19.41
3,4,15,-0.92,-0.26,0.18,26.06,-9.09,17.82
3,4,14,-0.9,-0.25,0.15,22.4,-8.3,15.87
3,4,14,-0.9,-0.25,0.15,20.75,-8.91,14.22
3,4,13,-0.89,-0.25,0.15,20.75,-8.91,14.22
3,4,13,-0.89,-0.27,0.16,20.32,-11.05,12.7
4,3,12,-0.89,-0.26,0.16,17.03,-13.55,10.8
5,3,12,-0.91,-0.25,0.17,14.22,-14.04,9.22
6,2,11,-0.91,-0.25,0.17,14.22,-14.04,9.22
8,2,10,-0.92,-0.25,0.18,11.72,-12.57,7.2
9,1,8,-0.93,-0.24,0.15,6.47,-11.17,4.94
10,0,5,-0.94,-0.24,0.11,2.87,-11.29,3.36
10,0,4,-0.94,-0.24,0.11,0.92,-11.9,2.08
10,0,3,-0.97,-0.23,0.09,0.92,-11.9,2.08
11,-1,3,-0.98,-0.23,0.07,-1.04,-11.84,0.92
11,-1,3,-1,-0.21,0.04,-2.32,-11.72,-0.18
11,-1,3,-1.01,-0.21,0.02,-1.71,-12.51,-0.73
11,-1,3,-1.01,-0.21,0.02,-0.92,-13.49,-1.4
11,-1,3,-1.04,-0.21,0.02,-0.92,-13.49,-1.4
11,-1,3,-1.05,-0.22,0.02,-1.28,-13.49,-1.65
11,-1,3,-1.07,-0.21,0.02,-1.4,-13.24,-1.22
11,-1,3,-1.05,-0.22,0.02,-2.75,-11.54,-1.16
11,-1,3,-1.06,-0.21,0.02,-3.42,-10.44,-0.67
11,-1,2,-1.06,-0.21,0.02,-1.46,-8.79,0.06
11,-1,2,-1.06,-0.18,0.01,-1.46,-8.79,0.06
11,-1,2,-1.03,-0.21,0.02,-0.43,-6.16,0
11,-1,0,-1.01,-0.18,0.01,-2.26,-4.15,0
11,0,0,-0.99,-0.16,-0.01,-2.32,-3.66,0.12
11,0,0,-0.99,-0.16,-0.01,-0.61,-3.85,0.06
11,0,0,-0.98,-0.15,-0.03,-0.61,-3.85,0.06
10,0,0,-0.95,-0.13,-0.03,-1.34,-3.17,-0.37
10,0,0,-0.94,-0.12,-0.04,-1.4,-2.69,-0.79
10,0,0,-0.94,-0.11,-0.05,-0.43,-2.26,-1.28
10,0,0,-0.94,-0.11,-0.06,1.77,-1.28,-1.83
10,0,0,-0.94,-0.11,-0.06,1.77,-1.28,-1.83
10,0,0,-0.94,-0.11,-0.07,4.21,-0.49,-2.38
10,0,0,-0.95,-0.1,-0.07,6.47,-0.18,-2.99
10,0,1,-0.96,-0.1,-0.07,7.87,0.49,-3.6
10,0,1,-0.96,-0.12,-0.07,8.79,0.98,-4.88
9,0,1,-0.96,-0.12,-0.07,9.16,1.04,-6.53
9,1,1,-0.96,-0.12,-0.08,9.16,1.04,-6.53
9,1,1,-0.96,-0.14,-0.08,9.46,1.53,-8
9,1,2,-0.95,-0.14,-0.08,9.83,2.56,-9.52
9,2,3,-0.94,-0.15,-0.08,9.64,3.6,-11.17
9,3,4,-0.94,-0.15,-0.08,9.64,3.6,-11.17
9,3,5,-0.94,-0.16,-0.08,8.48,4.58,-12.51
9,3,6,-0.94,-0.15,-0.09,7.32,5.55,-13.79
9,4,8,-0.94,-0.15,-0.1,6.59,6.47,-14.4
9,4,10,-0.93,-0.15,-0.1,5.86,6.77,-15.44
9,4,11,-0.93,-0.15,-0.1,5.43,6.96,-16.24
9,4,12,-0.93,-0.13,-0.1,5.43,6.96,-16.24
9,4,13,-0.92,-0.12,-0.09,5,7.51,-17.15
8,4,13,-0.92,-0.11,-0.09,5,8,-18.01
8,4,14,-0.93,-0.11,-0.08,5.07,8.48,-18.8
8,5,14,-0.93,-0.11,-0.08,5.07,8.48,-18.8
8,5,14,-0.92,-0.11,-0.09,4.88,8.54,-19.71
8,5,15,-0.92,-0.11,-0.1,4.7,8.24,-20.75
8,5,15,-0.92,-0.11,-0.1,4.94,7.87,-21.73
8,5,15,-0.93,-0.12,-0.11,5.86,7.75,-22.77
8,5,16,-0.93,-0.12,-0.11,5.86,7.75,-22.77
8,5,16,-0.93,-0.14,-0.1,7.02,8.61,-23.19
8,5,16,-0.94,-0.15,-0.08,8.54,9.4,-23.44
8,5,16,-0.96,-0.17,-0.05,10.93,10.13,-23.32
8,5,16,-0.98,-0.19,-0.04,10.07,11.72,-23.13
8,5,16,-0.98,-0.19,-0.04,7.2,11.23,-24.05
8,5,16,-0.99,-0.17,-0.05,7.2,11.23,-24.05
8,5,16,-1.02,-0.17,-0.07,4.21,7.69,-25.27
8,5,16,-1.04,-0.18,-0.07,3.54,6.9,-25.33
8,5,16,-1.06,-0.19,-0.06,4.39,8.91,-24.72
8,5,16,-1.06,-0.19,-0.06,4.39,8.91,-24.72
8,5,16,-1.08,-0.19,-0.06,5.07,8.97,-23.86
9,5,17,-1.11,-0.19,-0.07,4.27,7.45,-22.95
9,5,17,-1.13,-0.19,-0.09,3.54,6.96,-21.73
9,5,17,-1.14,-0.19,-0.1,3.97,7.39,-20.2
9,5,17,-1.14,-0.19,-0.1,3.97,7.39,-20.2
9,5,17,-1.15,-0.18,-0.1,5.92,8.24,-18.19
9,5,17,-1.14,-0.18,-0.1,9.16,9.46,-16.11
9,5,17,-1.14,-0.18,-0.1,12.27,9.4,-14.16
9,5,17,-1.15,-0.18,-0.12,13.61,7.63,-12.63
9,5,17,-1.15,-0.18,-0.12,13.61,7.63,-12.63
9,5,18,-1.15,-0.17,-0.15,12.76,4.58,-11.78
9,5,18,-1.14,-0.17,-0.2,10.38,-0.12,-11.29
9,5,18,-1.13,-0.18,-0.23,7.57,-6.71,-10.68
9,5,18,-1.15,-0.17,-0.25,4.39,-15.69,-9.64
9,5,18,-1.15,-0.17,-0.25,4.39,-15.69,-9.64
9,5,18,-1.2,-0.14,-0.26,4.27,-24.17,-8.18
9,5,18,-1.25,-0.12,-0.23,6.29,-30.15,-6.77
9,5,18,-1.31,-0.11,-0.21,7.93,-37.23,-5.68
9,5,18,-1.36,-0.07,-0.15,8.42,-45.23,-5
8,5,18,-1.36,-0.07,-0.15,10.44,-49.44,-4.7
8,5,18,-1.33,-0.04,-0.04,10.44,-49.44,-4.7
8,5,18,-1.28,0,0.08,8.79,-53.41,-5.43
8,5,18,-1.25,0.04,0.15,6.23,-57.5,-5.92
8,5,18,-1.19,0.05,0.17,2.44,-52.31,-6.59
8,5,18,-1.19,0.05,0.17,0.06,-36.19,-7.02
8,5,18,-1.09,0.07,0.16,0.06,-36.19,-7.02
8,5,18,-0.98,0.06,0.14,-0.73,-18.62,-6.77
8,5,18,-0.9,0.06,0.09,-1.77,-5.62,-5.86
8,5,18,-0.85,0.07,0.04,-2.32,2.62,-4.82
8,5,18,-0.85,0.07,0.04,-2.32,2.62,-4.82
8,5,18,-0.83,0.11,0,-2.38,8.42,-3.72
8,5,18,-0.8,0.12,-0.02,0.49,12.45,-2.62
7,5,18,-0.82,0.14,-0.04,4.82,12.76,-1.28
7,5,18,-0.82,0.14,-0.04,8.48,9.03,-0.37
7,5,18,-0.85,0.12,-0.04,8.48,9.03,-0.37
7,5,18,-0.88,0.16,-0.03,7.2,2.32,-0.06
7,5,18,-0.95,0.15,-0.02,7.45,-5.55,0.37
7,5,18,-1.01,0.11,0.02,10.19,-12.02,0.92
6,5,18,-1.01,0.11,0.02,10.19,-12.02,0.92
6,4,18,-1.08,0.08,0.08,9.4,-15.81,0.92
6,4,18,-1.16,0.04,0.15,10.25,-15.87,1.28
6,4,18,-1.16,0.02,0.17,8.18,-10.5,1.89
5,4,18,-1.16,0.02,0.17,5.43,-2.69,1.83
5,4,18,-1.16,0.02,0.14,5.43,-2.69,1.83
5,4,18,-1.16,-0.03,0.09,5.43,5.62,2.32
5,4,18,-1.12,-0.04,0.05,2.5,14.28,2.44
5,4,18,-1.05,0,-0.02,-3.54,20.14,1.77
5,4,18,-1.05,0,-0.02,-3.54,20.14,1.77
5,4,18,-1.03,0,-0.08,-4.03,21.55,1.95
5,4,18,-1.02,-0.02,-0.06,-0.31,22.46,3.05
5,4,18,-1.01,-0.03,-0.03,1.04,24.66,3.78
4,4,18,-1.01,-0.03,-0.03,1.95,26.55,4.39
4,4,18,-1,-0.02,-0.04,1.95,26.55,4.39
3,4,18,-0.97,-0.02,-0.05,0.49,30.76,4.15
3,4,18,-0.95,-0.04,-0.06,0.61,32.47,3.97
3,4,18,-0.93,-0.04,-0.08,-0.18,32.53,3.48
3,4,18,-0.93,-0.04,-0.08,-0.18,32.53,3.48
3,4,18,-0.92,-0.04,-0.08,-2.38,31.37,3.42
3,4,19,-0.91,-0.03,-0.07,-4.15,30.64,3.66
3,4,19,-0.9,-0.03,-0.06,-5,30.46,3.66
2,4,20,-0.9,-0.03,-0.06,-5.25,29.97,3.97
2,4,22,-0.9,-0.04,-0.05,-5.25,29.97,3.97
2,4,22,-0.9,-0.04,-0.04,-7.51,29.11,4.33
2,4,23,-0.9,-0.03,-0.04,-10.56,27.34,4.64
2,3,23,-0.89,-0.02,-0.04,-13.61,26.18,5
2,3,23,-0.89,-0.02,-0.04,-15.63,27.22,5.25
2,3,24,-0.9,-0.01,-0.04,-15.63,27.22,5.25
2,3,24,-0.89,-0.02,-0.05,-17.52,28.32,5.25
2,3,24,-0.88,-0.02,-0.07,-18.74,29.24,5.37
2,3,24,-0.89,-0.04,-0.08,-19.23,28.63,5.8
2,3,24,-0.89,-0.04,-0.08,-19.23,28.63,5.8
2,4,25,-0.88,-0.02,-0.1,-17.94,28.75,6.29
2,4,25,-0.89,-0.02,-0.11,-16.48,28.93,6.9
2,4,25,-0.89,-0.04,-0.11,-12.82,28.81,7.75
2,4,25,-0.87,-0.02,-0.1,-13.18,28.93,8.18
2,4,26,-0.87,-0.02,-0.1,-13.18,28.93,8.18
1,4,27,-0.87,-0.02,-0.1,-14.89,26.49,8.36
1,4,28,-0.87,-0.02,-0.09,-14.53,24.29,8.36
1,4,29,-0.87,-0.01,-0.08,-14.4,23.44,8.54
1,4,30,-0.88,0,-0.08,-14.4,22.58,8.85
1,4,31,-0.88,0,-0.08,-14.4,22.58,8.85
1,5,31,-0.9,0,-0.09,-12.94,22.4,9.22
1,5,31,-0.91,0,-0.09,-10.56,23.74,9.64
1,5,31,-0.93,-0.01,-0.09,-8.91,24.29,9.58
1,5,31,-0.93,-0.01,-0.09,-7.51,22.52,9.95
1,5,31,-0.96,0,-0.1,-7.51,22.52,9.95
1,5,31,-0.99,0.01,-0.12,-6.59,20.39,10.19
1,5,31,-1.01,0.02,-0.13,-4.21,18.31,10.86
0,5,31,-1.03,0.04,-0.12,-0.73,15.87,11.29
0,6,31,-1.03,0.04,-0.12,-0.73,15.87,11.29
0,6,31,-1.06,0.05,-0.1,3.6,12.76,11.84
0,5,31,-1.11,0.04,-0.06,7.32,9.58,12.08
0,5,31,-1.15,0.03,-0.04,9.64,7.2,12.02
0,5,31,-1.15,0.03,-0.04,10.5,6.23,11.54
0,5,31,-1.2,0.04,-0.02,10.5,6.23,11.54
0,5,31,-1.24,0.03,0,11.29,5.8,11.29
0,5,31,-1.28,0.02,0.01,12.15,6.29,10.86
0,5,31,-1.28,0.02,0.01,12.82,6.96,10.31
0,5,31,-1.32,0.02,0.02,12.82,6.96,10.31
-1,5,31,-1.34,0.01,0.02,12.51,8.61,9.64
-1,5,31,-1.32,0.01,0,12.27,10.74,8.67
0,5,31,-1.29,0,-0.03,13.06,11.78,8
0,5,31,-1.29,0,-0.03,13.06,11.78,8
0,4,31,-1.26,-0.01,-0.06,14.59,11.72,7.75
0,4,31,-1.24,-0.02,-0.07,15.69,10.25,7.75
0,4,31,-1.25,-0.03,-0.06,15.38,7.93,8
0,4,31,-1.25,-0.03,-0.06,14.34,4.94,8.48
0,4,31,-1.29,-0.02,-0.06,14.34,4.94,8.48
0,4,31,-1.32,-0.02,-0.05,13.79,2.87,8.85
0,4,31,-1.32,-0.04,-0.02,15.63,2.44,9.28
0,4,31,-1.29,-0.07,0.03,18.98,2.14,9.95
0,4,31,-1.29,-0.07,0.03,18.98,2.14,9.95
0,4,31,-1.23,-0.11,0.08,20.75,1.53,9.89
0,3,31,-1.12,-0.14,0.12,20.2,1.34,9.16
0,3,31,-0.99,-0.14,0.17,17.4,0.31,8.06
1,3,31,-0.99,-0.14,0.17,17.4,0.31,8.06
1,3,31,-0.89,-0.12,0.21,13.85,0.37,6.71
1,3,31,-0.81,-0.12,0.25,11.05,-0.43,5.8
1,3,31,-0.78,-0.11,0.27,8.97,-0.61,5.31
1,3,31,-0.74,-0.12,0.28,8.12,1.28,4.64
1,3,31,-0.74,-0.12,0.28,8.12,1.28,4.64
1,3,31,-0.7,-0.12,0.28,8.24,5,3.97
1,3,30,-0.69,-0.13,0.26,6.71,7.45,3.17
1,3,30,-0.72,-0.14,0.24,6.16,8.24,2.01
2,3,29,-0.72,-0.14,0.24,6.16,8.24,2.01
2,3,28,-0.75,-0.19,0.24,7.69,8.3,1.34
2,2,27,-0.78,-0.19,0.22,5.92,7.45,0.31
2,2,26,-0.84,-0.24,0.21,5.31,3.78,-1.04
2,2,26,-0.84,-0.24,0.21,6.29,-1.22,-1.83
3,2,26,-0.92,-0.26,0.24,6.29,-1.22,-1.83
3,1,25,-1.02,-0.26,0.23,6.35,-4.7,-2.14
3,1,25,-1.13,-0.24,0.22,4.88,-8.48,-2.62
3,1,25,-1.24,-0.24,0.19,0.79,-14.1,-2.93
3,1,24,-1.24,-0.24,0.19,-3.48,-16.36,-3.36
4,1,24,-1.34,-0.25,0.18,-3.48,-16.36,-3.36
4,1,23,-1.39,-0.23,0.19,-8.3,-14.95,-3.48
4,1,21,-1.38,-0.21,0.18,-13.61,-13.61,-3.66
4,1,17,-1.36,-0.16,0.17,-17.52,-11.54,-3.42
4,1,14,-1.36,-0.16,0.17,-18.19,-10.07,-2.56
4,0,12,-1.36,-0.13,0.14,-18.19,-10.07,-2.56
4,0,12,-1.33,-0.02,0.08,-19.23,-8.73,-1.16
4,0,12,-1.31,0.08,0.03,-18.43,-6.9,0.55
4,0,12,-1.33,0.22,-0.03,-13.49,-7.14,2.69
4,0,12,-1.33,0.22,-0.03,-8,-3.48,4.27
4,0,12,-1.26,0.32,-0.07,-8,-3.48,4.27
4,0,11,-1.19,0.33,-0.07,0.67,4.33,5.49
4,0,11,-1.16,0.38,-0.11,13.98,4.03,5.98
4,0,11,-1.04,0.39,-0.07,30.4,6.71,6.96
4,0,11,-1.04,0.39,-0.07,30.4,6.71,6.96
4,0,11,-0.97,0.35,-0.05,43.15,7.39,8.85
4,0,11,-0.92,0.35,-0.06,54.38,4.7,9.28
4,1,10,-0.87,0.31,-0.03,69.52,0.49,10.13
3,1,10,-0.87,0.31,-0.03,87.4,-1.59,10.86
3,1,10,-0.76,0.27,0.06,87.4,-1.59,10.86
3,1,10,-0.71,0.2,0.14,103.27,-6.59,12.21
2,0,10,-0.72,0.11,0.06,110.23,-12.02,12.63
2,0,10,-0.68,0.03,0.01,114.01,-13.61,12.33
2,0,10,-0.68,0.03,0.01,114.01,-13.61,12.33
2,0,10,-0.58,0,-0.02,117.49,-9.34,12.15
2,0,10,-0.54,-0.09,0,121.95,-3.6,12.27
2,0,10,-0.54,-0.13,-0.01,117.68,1.46,13.79
2,0,10,-0.54,-0.13,-0.01,115.05,12.51,12.51
2,0,10,-0.45,-0.22,0.04,115.05,12.51,12.51
2,0,10,-0.37,-0.38,0.06,112.55,17.21,11.47
2,0,10,-0.35,-0.5,0.06,104.49,13.12,14.77
2,0,10,-0.33,-0.52,0.06,96.98,7.63,14.22
2,0,10,-0.33,-0.52,0.06,96.98,7.63,14.22
2,0,10,-0.34,-0.53,0.06,92.35,7.02,7.93
2,0,10,-0.29,-0.58,0.03,86.18,11.6,-1.95
2,0,9,-0.31,-0.69,-0.01,78.8,14.89,-13.43
2,0,9,-0.31,-0.69,-0.01,74.28,16.97,-25.76
2,0,9,-0.4,-0.79,-0.06,74.28,16.97,-25.76
2,0,9,-0.52,-0.85,-0.15,69.76,20.94,-36.62
3,0,9,-0.66,-0.83,-0.26,60.79,33.63,-46.63
3,0,9,-0.8,-0.78,-0.4,47.3,52.61,-54.08
3,0,9,-0.8,-0.78,-0.4,31.01,70.07,-58.29
3,0,9,-0.91,-0.69,-0.55,31.01,70.07,-58.29
3,0,9,-0.96,-0.63,-0.64,17.09,79.53,-59.33
3,0,9,-1,-0.61,-0.6,7.2,71.59,-55.97
3,0,9,-0.97,-0.7,-0.45,-7.87,41.93,-46.63
3,0,9,-0.97,-0.7,-0.45,-30.15,-5.98,-35.64
3,0,9,-1.01,-0.75,-0.2,-30.15,-5.98,-35.64
4,0,9,-1.22,-0.78,0.07,-64.88,-57.92,-26.43
4,0,9,-1.53,-0.67,0.21,-115.54,-91,-19.29
4,0,9,-1.76,-0.53,0.34,-154.97,-89.6,-11.6
4,0,9,-1.58,-0.25,0.51,-168.09,-59.02,-4.64
4,0,9,-1.58,-0.25,0.51,-168.09,-59.02,-4.64
4,0,9,-1.3,0.02,0.66,-146.3,-22.95,6.53
4,0,9,-1.02,0.4,0.49,-114.07,2.87,11.78
4,0,9,-1.1,0.43,0.23,-106.99,17.7,0.61
4,0,9,-1.1,0.43,0.23,-118.77,15.08,-13.85
4,0,9,-1.39,0.51,-0.19,-118.77,15.08,-13.85
4,0,9,-1.47,0.5,-0.26,-109.62,6.41,-23.44
4,0,9,-1.45,0.51,-0.21,-93.44,-1.71,-22.89
4,0,9,-1.44,0.47,-0.1,-78.31,-8.54,-21.48
4,0,9,-1.44,0.47,-0.1,-55.91,-11.17,-21.48
4,0,9,-1.56,0.34,0.06,-55.91,-11.17,-21.48
3,0,9,-1.61,0.13,0.12,-42.3,-5.86,-20.87
3,0,9,-1.64,0.07,0.13,-34.24,-0.67,-18.31
3,0,9,-1.59,0.05,0.04,-34.36,1.46,-16.3
3,0,9,-1.59,0.05,0.04,-30.94,7.75,-12.94
3,0,9,-1.46,-0.03,0.03,-30.94,7.75,-12.94
3,0,9,-1.38,-0.02,0.02,-29.3,8.12,-8.24
3,0,9,-1.35,0.04,0.02,-27.89,3.3,-3.36
3,0,9,-1.32,0.09,-0.01,-27.16,-0.43,0.18
3,0,9,-1.32,0.09,-0.01,-27.16,-0.43,0.18
3,0,9,-1.25,0.15,-0.01,-22.4,0.55,3.97
3,0,9,-1.21,0.13,0,-16.85,1.59,7.51
2,0,9,-1.17,0.13,0.01,-13.06,-2.81,10.74
2,0,9,-1.17,0.13,0.01,-14.83,-6.1,12.94
2,0,9,-1.18,0.14,0.03,-14.83,-6.1,12.94
2,-1,9,-1.15,0.13,0.05,-17.94,-8.06,14.71
1,-1,9,-1.18,0.15,0.04,-19.53,-5.98,16.72
1,-1,9,-1.18,0.12,0.04,-16.78,-0.06,19.84
0,-1,9,-1.18,0.12,0.04,-15.38,10.5,22.58
-2,-1,9,-1.14,0.11,0.06,-15.38,10.5,22.58
-4,-1,10,-1.14,0.14,0.07,-14.89,18.74,24.35
-4,-1,10,-1.07,0.08,0.12,-14.16,25.57,25.09
-4,-1,10,-1.03,0.04,0.11,-21.18,31.56,23.99
-4,-1,10,-1.03,0.04,0.11,-33.81,30.33,22.03
-4,-1,10,-0.99,0.02,0.07,-33.81,30.33,22.03
-4,-1,10,-0.92,0.03,0,-46.33,24.6,21.48
-4,-1,10,-0.86,0.05,-0.05,-52.61,19.35,21.18
-4,-1,10,-0.8,0.06,-0.06,-53.22,16.91,21.61
-4,-1,10,-0.8,0.06,-0.06,-53.22,16.91,21.61
-4,-1,10,-0.71,0.05,-0.06,-48.77,14.53,22.58
-4,-1,10,-0.67,0.05,-0.05,-44.25,10.68,24.54
-4,-1,10,-0.6,0.05,-0.04,-41.44,6.1,26.06
-4,-1,10,-0.55,0.07,-0.02,-40.89,4.33,26.98
-4,-1,10,-0.55,0.07,-0.02,-41.14,4.27,27.34
-4,-1,10,-0.5,0.08,0,-41.14,4.27,27.34
-4,-1,10,-0.46,0.1,0.01,-41.63,4.58,28.32
-4,-1,10,-0.45,0.11,0.01,-41.26,6.04,29.24
-4,-1,10,-0.43,0.09,0.02,-40.53,6.9,29.54
-4,-1,10,-0.43,0.09,0.02,-42.11,5.55,29.36
-4,-1,10,-0.41,0.08,0.01,-42.11,5.55,29.36
-4,-1,10,-0.4,0.07,-0.01,-42.18,6.53,29.11
-4,-1,10,-0.38,0.07,-0.03,-39.12,10.31,28.5
-4,-1,10,-0.34,0.05,-0.02,-33.26,13.37,28.14
-5,-1,9,-0.34,0.05,-0.02,-24.84,14.1,28.02
-5,-1,9,-0.34,0.08,-0.03,-24.84,14.1,28.02
-5,-1,9,-0.27,0.03,0.02,-15.69,16.11,27.53
-5,-1,9,-0.25,0.02,0.07,-5.55,17.27,27.83
-5,-1,9,-0.3,0.01,0.13,4.09,11.9,28.32
-5,-1,9,-0.3,0.01,0.13,8.42,-0.31,27.65
-5,-1,9,-0.45,-0.06,0.13,8.42,-0.31,27.65
-5,-1,9,-0.76,-0.1,0.13,14.1,-8.97,25.45
-5,-1,9,-1.18,-0.19,0.23,32.84,-8,22.71
-5,-1,9,-1.52,-0.34,0.49,58.72,0.61,18.8
-5,-1,9,-1.73,-0.65,1.11,63.9,6.1,11.96
-5,-1,9,-1.73,-0.65,1.11,63.9,6.1,11.96
-5,-1,9,-1.87,-0.76,1.23,29.48,11.05,3.05
-5,-1,9,-1.78,-0.52,0.61,-26.43,25.94,-6.65
-5,-1,9,-1.75,-0.3,0.09,-58.23,39.86,-14.77
-5,-1,9,-1.56,-0.19,0.05,-47.24,33.2,-18.01
-5,-1,9,-1.56,-0.19,0.05,-47.24,33.2,-18.01
-5,-1,9,-1.51,-0.04,0.11,-31.56,14.4,-15.69
-5,-1,9,-1.53,-0.01,0.24,-18.19,-0.61,-8.3
-5,-1,9,-1.5,-0.03,0.28,-14.77,-7.02,-2.32
-5,-1,9,-1.47,-0.04,0.21,-15.08,-4.09,4.39
-5,-1,9,-1.47,-0.04,0.21,-14.28,-4.64,10.44
-5,-1,9,-1.44,0.06,0.16,-14.28,-4.64,10.44
-5,-1,9,-1.36,0.13,0.13,-11.66,-10.38,12.45
-5,-1,9,-1.31,0.17,0.09,-5.25,-15.99,11.6
-5,-2,9,-1.31,0.16,0.06,5,-21,10.62
-5,-2,9,-1.31,0.16,0.04,16.66,-26.98,10.44
-5,-2,9,-1.31,0.16,0.04,16.66,-26.98,10.44
-5,-2,9,-1.3,0.09,-0.01,28.08,-30.58,10.25
-5,-2,9,-1.29,0.04,-0.06,40.1,-33.2,10.25
-5,-1,9,-1.26,-0.01,-0.07,50.6,-37.54,10.25
-5,-1,9,-1.26,-0.05,-0.05,58.59,-40.22,9.64
-4,-1,9,-1.26,-0.05,-0.05,58.59,-40.22,9.64
-4,-1,9,-1.24,-0.08,-0.05,66.16,-40.34,9.09
-4,-1,9,-1.2,-0.13,-0.06,76.11,-39.31,9.03
-4,-1,9,-1.14,-0.14,-0.07,82.52,-38.82,9.09
-4,-1,9,-1.07,-0.17,-0.04,90.21,-37.72,9.46
-4,-1,9,-1.07,-0.17,-0.04,92.29,-37.66,9.4
-4,0,9,-1.03,-0.15,-0.01,92.29,-37.66,9.4
-4,0,9,-0.9,-0.15,0,90.27,-34.12,8.85
-4,0,9,-0.84,-0.1,0,88.81,-28.32,7.81
-4,0,9,-0.79,-0.08,0,86.55,-22.89,7.08
-3,0,9,-0.74,-0.06,0.02,82.7,-19.04,4.88
-3,0,9,-0.74,-0.06,0.02,82.7,-19.04,4.88
-2,0,9,-0.71,-0.08,0.03,75.74,-20.63,0.79
-2,0,9,-0.63,-0.1,0.07,71.11,-15.56,-2.87
-1,0,9,-0.61,-0.12,0.07,65.49,-10.8,-6.23
-1,0,8,-0.6,-0.18,0.04,57.8,-9.16,-10.38
-1,0,8,-0.6,-0.18,0.04,57.8,-9.16,-10.38
-1,0,8,-0.56,-0.21,0.01,48.71,-7.87,-15.44
-1,0,8,-0.52,-0.23,-0.02,36.87,-6.65,-19.9
-1,0,8,-0.46,-0.25,-0.05,27.59,-3.97,-23.99
-1,0,8,-0.41,-0.27,-0.08,23.8,0.98,-26.98
0,0,8,-0.41,-0.27,-0.08,23.8,0.98,-26.98
0,0,8,-0.37,-0.28,-0.06,24.48,7.57,-29.17
0,0,8,-0.33,-0.3,-0.03,26.61,14.71,-31.37
0,0,8,-0.28,-0.32,-0.02,27.95,18.8,-34.3
0,0,8,-0.22,-0.34,-0.01,29.24,18.8,-36.74
0,0,8,-0.22,-0.34,-0.01,29.24,18.8,-36.74
0,0,8,-0.21,-0.36,0,30.82,16.6,-37.84
0,0,8,-0.24,-0.41,0.01,31.74,13,-37.6
0,0,8,-0.31,-0.46,0.05,27.95,11.9,-37.54
0,0,8,-0.31,-0.46,0.05,16.78,14.95,-38.51
0,0,8,-0.47,-0.53,0.09,16.78,14.95,-38.51
0,0,7,-0.73,-0.64,0.09,-2.81,17.15,-41.81
0,0,7,-1.18,-0.76,-0.04,-30.64,19.53,-46.39
1,0,7,-1.98,-0.98,-0.33,-61.89,19.78,-52.67
1,0,7,-1.98,-0.98,-0.33,-97.66,16.6,-48.65
1,0,7,-2.54,-0.84,-0.75,-97.66,16.6,-48.65
1,0,7,-1.68,-0.2,-0.47,-128.54,19.65,-27.4
1,0,7,-1.32,0.06,0.38,-110.29,-44.31,-2.32
1,0,7,-1.91,1.18,1.51,-93.63,-144.71,13.12
1,0,7,-1.91,1.18,1.51,-65.19,-93.02,-4.88
1,0,7,-2.23,0.56,0.92,-65.19,-93.02,-4.88
1,0,7,-2.06,0.36,0.34,-76.6,32.53,-28.69
1,0,7,-1.85,0.5,-0.16,-96.31,69.15,-37.23
1,0,7,-1.62,0.5,-0.41,-101.75,60.91,-35.95
1,0,7,-1.62,0.5,-0.41,-76.9,64.64,-29.97
1,0,7,-1.38,0.28,-0.38,-76.9,64.64,-29.97
1,0,7,-1.24,-0.01,-0.31,-41.02,64.27,-20.45
1,0,7,-1.28,-0.05,-0.18,-30.46,45.84,-11.05
1,0,7,-1.39,-0.15,-0.16,-36.25,24.96,-4.88
1,0,7,-1.39,-0.15,-0.16,-41.26,10.25,0.98
1,0,7,-1.45,-0.18,-0.03,-41.26,10.25,0.98
1,0,7,-1.48,-0.09,0.05,-49.87,0.37,4.7
1,0,7,-1.44,-0.09,0.08,-52.73,-5,8.61
1,0,7,-1.43,0.13,0.14,-51.09,-9.4,12.15
1,0,7,-1.43,0.13,0.14,-53.04,-8.67,11.66
0,0,7,-1.39,0.24,0.15,-53.04,-8.67,11.66
0,0,8,-1.35,0.28,0.13,-44.68,0,13.12
0,0,8,-1.22,0.24,0.09,-30.7,10.68,15.32
0,0,8,-1.09,0.17,0.09,-19.65,20.63,18.98
0,0,8,-1.09,0.17,0.09,-19.65,20.63,18.98
0,-1,8,-0.96,0.08,0.12,-11.6,28.14,21.85
0,-1,8,-0.86,0.08,0.06,-12.33,26.92,25.57
0,-2,8,-0.83,0.06,0.11,-9.28,19.84,30.76
0,-3,8,-0.83,0.06,0.11,-3.78,13.85,34.55
0,-3,8,-0.74,0.1,0.18,-3.78,13.85,34.55
-1,-3,8,-0.7,0.08,0.24,3.48,14.28,39.43
-1,-3,8,-0.64,0.06,0.24,4.76,18.13,42.79
-1,-3,9,-0.57,0.03,0.24,-3.78,23.01,43.15
-1,-3,9,-0.57,0.03,0.24,-3.78,23.01,43.15
-1,-3,9,-0.54,-0.01,0.22,-15.81,25.51,42.66
-1,-3,9,-0.46,-0.02,0.22,-29.3,25.27,40.1
-1,-4,9,-0.44,-0.03,0.19,-46.51,22.64,35.22
-1,-4,9,-0.39,0,0.14,-67.81,27.83,28.5
-1,-4,9,-0.39,0,0.14,-67.81,27.83,28.5
-1,-4,9,-0.36,-0.04,0.05,-77.76,33.81,22.16
-1,-4,9,-0.32,-0.04,-0.02,-78.19,41.5,18.68
-1,-4,9,-0.26,-0.05,-0.07,-67.26,50.29,16.91
-1,-4,9,-0.22,-0.1,-0.08,-45.96,55.36,16.66
-1,-4,9,-0.22,-0.1,-0.08,-24.66,51.7,18.37
-1,-4,9,-0.17,-0.11,-0.08,-24.66,51.7,18.37
0,-4,9,-0.12,-0.12,-0.08,-7.69,43.88,21.18
0,-4,9,-0.08,-0.14,-0.07,6.35,35.71,23.68
0,-4,9,-0.09,-0.14,-0.07,17.64,26.49,23.56
0,-4,9,-0.07,-0.18,-0.05,24.41,16.48,21.67
0,-4,9,-0.07,-0.18,-0.05,24.41,16.48,21.67
0,-4,9,-0.14,-0.22,-0.04,26.86,6.23,18.62
0,-4,9,-0.26,-0.26,0,29.24,-3.05,15.44
0,-4,9,-0.9,-0.43,-0.12,34.67,-17.33,15.26
0,-4,9,-1.81,-0.43,-0.67,37.9,-31.92,18.74
0,-4,9,-1.81,-0.43,-0.67,37.9,-31.92,18.74
0,-4,9,-1.94,0.13,-0.79,62.13,-38.88,22.4
0,-4,10,-1.76,0.1,0.63,151.31,-111.94,25.76
0,-4,10,-3.4,0.08,3.08,172.3,-235.53,31.13
0,-4,10,-3.4,0.08,3.08,118.16,-147.09,16.78
0,-4,10,-3.01,0.01,2.67,118.16,-147.09,16.78
0,-4,10,-1.84,0.29,0.74,51.7,29.91,-14.65
0,-4,10,-1.48,0.27,-0.09,33.69,74.34,-16.17
0,-4,10,-1.31,0.21,-0.47,34.06,34.36,-7.57
0,-4,10,-1.31,0.21,-0.47,34.06,34.36,-7.57
0,-4,10,-1.27,0.01,-0.34,38.39,-18.62,-2.08
0,-4,10,-1.3,-0.19,-0.05,55.42,-35.71,4.76
0,-4,10,-1.25,-0.32,0.14,61.77,-28.14,9.22
0,-4,10,-1.21,-0.32,0.19,50.42,-25.15,9.09
0,-4,10,-1.21,-0.32,0.19,35.64,-26.12,6.53
0,-4,10,-1.21,-0.2,0.11,35.64,-26.12,6.53
0,-4,10,-1.19,-0.09,-0.01,30.09,-23.32,3.97
0,-4,10,-1.21,0.01,-0.06,32.1,-25.09,3.05
0,-4,9,-1.22,0.08,-0.14,41.63,-23.68,1.65
0,-3,9,-1.22,0.08,-0.14,41.63,-23.68,1.65
0,-3,9,-1.23,0,-0.19,57.56,-20.39,0.12
0,-3,9,-1.13,-0.06,-0.2,69.64,-23.01,0.18
0,-3,9,-1.13,-0.16,-0.17,77.45,-29.48,0.85
0,-3,9,-1.09,-0.17,-0.13,78.43,-29.97,0.98
0,-3,9,-1.09,-0.17,-0.13,79.41,-27.77,0.43
0,-3,9,-1.08,-0.17,-0.12,79.41,-27.77,0.43
0,-3,9,-1.03,-0.16,-0.15,78.74,-28.14,-1.53
0,-2,9,-0.95,-0.22,-0.14,79.04,-30.33,-4.15
0,-1,9,-0.88,-0.31,-0.1,79.96,-31.68,-5.98
1,0,9,-0.84,-0.29,-0.02,74.58,-34.24,-9.09
1,0,9,-0.84,-0.29,-0.02,74.58,-34.24,-9.09
1,0,9,-0.81,-0.3,0,65.49,-32.65,-12.33
1,0,9,-0.76,-0.26,0.03,56.15,-25.51,-19.1
1,0,9,-0.72,-0.21,0.02,39.67,-20.51,-26.86
1,0,9,-0.66,-0.17,0,30.76,-9.46,-32.29
2,0,9,-0.66,-0.17,0,25.45,6.59,-35.95
2,0,9,-0.61,-0.17,-0.06,25.45,6.59,-35.95
3,0,9,-0.54,-0.19,-0.14,24.72,19.47,-39.49
3,0,9,-0.44,-0.29,-0.18,33.14,31.62,-41.5
4,0,10,-0.29,-0.3,-0.22,38.02,45.59,-43.09
4,1,10,-0.29,-0.3,-0.22,39.49,44.13,-42.91
4,1,10,-0.22,-0.34,-0.23,39.49,44.13,-42.91
4,1,10,-0.17,-0.36,-0.2,43.7,35.77,-41.38
4,1,10,-0.14,-0.37,-0.14,46.94,23.8,-39.43
4,1,10,-0.14,-0.37,-0.08,47.73,11.47,-37.66
4,1,10,-0.14,-0.37,-0.08,40.1,3.97,-37.96
4,1,10,-0.1,-0.35,-0.02,40.1,3.97,-37.96
4,1,10,-0.08,-0.34,0.02,26.86,5.07,-38.39
4,1,10,-0.08,-0.3,0.05,14.28,11.17,-38.45
4,1,10,-0.16,-0.29,0.11,-0.06,18.74,-37.84
4,1,10,-0.16,-0.29,0.11,-0.06,18.74,-37.84
5,1,10,-0.25,-0.26,0.17,-24.9,25.51,-40.22
5,1,10,-0.46,-0.3,0.27,-60,25.39,-43.21
5,1,9,-0.95,-0.41,0.29,-105.41,14.95,-46.94
5,1,9,-1.92,-0.55,0.11,-140.93,-4.46,-52.86
5,1,9,-1.92,-0.55,0.11,-140.93,-4.46,-52.86
5,1,9,-2.74,-0.03,-0.48,-145.26,-33.45,-44.68
5,1,9,-2.77,0.68,-0.13,-105.65,-21.61,-22.89
5,1,9,-2.34,0.48,0.63,-57.92,27.65,-20.63
5,1,9,-2.17,0.18,0.67,-43.21,66.47,-30.09
5,1,9,-2.17,0.18,0.67,-43.21,66.47,-30.09
5,1,9,-2.1,0.21,0.31,-61.77,65.86,-38.09
5,1,10,-1.91,0.3,-0.02,-90.39,34.91,-40.28
5,1,10,-1.74,0.35,-0.03,-80.63,32.47,-31.68
5,1,9,-1.48,0.12,-0.07,-60.3,53.59,-22.83
5,1,9,-1.48,0.12,-0.07,-60.3,53.59,-22.83
5,1,9,-1.34,-0.07,-0.12,-54.93,58.04,-18.43
4,1,9,-1.35,-0.13,-0.2,-67.44,47.55,-14.22
4,1,10,-1.39,-0.07,-0.25,-82.4,32.29,-9.22
4,1,10,-1.4,0.01,-0.2,-81.6,14.89,-1.65
4,1,9,-1.4,0.01,-0.2,-81.6,14.89,-1.65
4,1,9,-1.45,0.04,-0.04,-69.89,1.95,5.98
4,1,9,-1.46,0.02,0.09,-62.81,-6.9,11.35
4,1,9,-1.53,0.13,0.13,-62.26,-13.49,15.14
4,1,9,-1.53,0.13,0.13,-58.59,-14.16,18.68
4,1,9,-1.38,0.03,0.11,-58.59,-14.16,18.68
3,0,10,-1.37,0.14,0.06,-58.96,-10.74,21.73
3,0,10,-1.28,0.23,0.03,-55.48,-6.16,22.89
3,0,10,-1.18,0.17,0.06,-40.83,5.19,26.92
3,0,10,-1.18,0.17,0.06,-40.83,5.19,26.92
2,0,10,-1.08,0.14,0.08,-25.02,19.04,32.1
2,0,10,-0.99,0.12,0.1,-17.52,24.11,35.83
2,-1,10,-0.87,0.11,0.1,-16.05,22.03,39.43
1,-1,10,-0.87,0.11,0.1,-11.35,20.94,43.82
1,-2,10,-0.79,0.1,0.1,-11.35,20.94,43.82
0,-2,10,-0.71,0.04,0.13,-6.29,22.09,49.13
0,-2,10,-0.63,0.03,0.16,-6.96,18.98,53.04
-1,-2,10,-0.57,0.04,0.19,-12.88,14.83,55.6
-1,-2,10,-0.57,0.04,0.19,-12.88,14.83,55.6
-1,-2,11,-0.5,0.03,0.21,-21.67,11.17,56.03
-1,-2,11,-0.48,0.02,0.23,-33.14,11.66,54.38
-1,-2,11,-0.46,0.04,0.18,-46.02,16.3,51.03
-1,-3,11,-0.38,0.07,0.17,-55.42,21.36,45.9
-2,-3,11,-0.38,0.07,0.17,-55.42,21.36,45.9
-2,-3,12,-0.37,0.08,0.11,-62.74,29.11,40.53
-2,-3,12,-0.32,0.05,0.06,-62.74,39.61,37.23
-2,-3,12,-0.29,-0.02,0,-59.08,49.74,33.81
-2,-3,12,-0.29,-0.02,0,-54.81,54.38,32.47
-2,-3,12,-0.26,-0.08,-0.01,-54.81,54.38,32.47
-2,-3,12,-0.24,-0.08,-0.02,-48.03,51.82,33.63
-2,-3,12,-0.22,-0.06,-0.04,-40.65,40.77,36.44
-2,-3,12,-0.25,-0.05,-0.03,-30.03,27.77,38.82
-2,-3,12,-0.3,-0.02,-0.04,-19.71,17.88,40.22
-2,-3,12,-0.3,-0.02,-0.04,-19.71,17.88,40.22
-2,-3,13,-0.4,-0.01,-0.05,-9.89,13.85,39.79
-2,-3,13,-0.55,-0.1,-0.11,2.62,17.03,38.57
-2,-3,13,-0.94,-0.08,-0.3,18.62,19.78,38.57
-2,-2,13,-1.12,0.09,-0.49,49.62,14.77,37.78
-2,-2,13,-1.12,0.09,-0.49,106.75,-5.55,40.77
-2,-2,13,-1.08,0.22,-0.47,106.75,-5.55,40.77
-2,-2,13,-1.2,0.03,-0.08,190.49,-56.27,42.6
-2,-2,13,-1.65,-0.34,1.11,226.01,-136.78,41.08
-2,-2,13,-2.73,-0.31,2.7,191.53,-194.21,33.39
-2,-2,13,-2.55,-0.35,2.05,114.07,-104.19,7.39
-2,-2,13,-2.55,-0.35,2.05,114.07,-104.19,7.39
-1,-2,12,-1.72,-0.28,0.62,43.33,35.46,-17.27
-1,-2,12,-1.46,-0.12,-0.02,33.75,75.26,-17.58
-1,-2,12,-1.33,-0.1,-0.3,46.51,37.9,-8.54
-1,-2,12,-1.35,-0.15,-0.12,59.45,-6.47,0.31
-1,-2,12,-1.35,-0.15,-0.12,59.45,-6.47,0.31
-1,-2,12,-1.4,-0.26,0.22,72.81,-17.15,8.67
0,-2,12,-1.33,-0.26,0.32,67.93,-10.68,11.96
0,-2,12,-1.25,-0.18,0.15,52.49,-5.07,11.11
1,-2,12,-1.2,-0.13,-0.01,42.24,-4.27,9.7
1,-2,12,-1.2,-0.13,-0.01,43.21,-6.65,9.09
2,-2,12,-1.17,-0.16,-0.06,43.21,-6.65,9.09
2,-2,12,-1.22,-0.17,-0.06,46.63,-9.16,9.34
2,-2,12,-1.22,-0.22,-0.04,52.43,-8.97,9.83
3,-2,12,-1.19,-0.24,-0.04,54.08,-10.74,10.13
3,-2,12,-1.19,-0.24,-0.04,53.47,-14.77,9.77
4,-2,12,-1.1,-0.22,-0.06,53.47,-14.77,9.77
4,-2,12,-0.98,-0.16,-0.11,50.11,-13.37,8.3
4,-2,12,-0.94,-0.14,-0.15,52,-13.37,8.18
4,-1,13,-0.92,-0.12,-0.18,54.38,-19.04,8.48
5,-1,13,-0.87,-0.18,-0.12,60.85,-22.52,8.42
5,-1,13,-0.87,-0.18,-0.12,60.85,-22.52,8.42
6,-1,13,-0.82,-0.17,-0.09,62.99,-22.4,6.71
6,-1,13,-0.83,-0.29,-0.14,59.14,-22.71,3.72
6,0,13,-0.79,-0.27,-0.06,56.21,-21.42,0.31
6,0,13,-0.73,-0.21,0,57.74,-17.46,-1.34
6,0,13,-0.73,-0.21,0,57.74,-17.46,-1.34
6,0,13,-0.67,-0.2,0.04,58.47,-13.43,-3.78
6,0,13,-0.55,-0.13,0.03,49.01,-10.01,-10.5
6,0,13,-0.46,-0.13,0,41.2,-3.05,-18.8
7,0,13,-0.42,-0.22,-0.01,38.82,9.7,-25.82
7,0,13,-0.42,-0.22,-0.01,38.82,9.7,-25.82
7,0,13,-0.33,-0.29,-0.04,35.4,24.54,-31.56
7,0,13,-0.28,-0.33,-0.1,28.08,34.24,-35.22
7,0,13,-0.21,-0.35,-0.15,23.99,39.12,-37.9
7,0,13,-0.15,-0.35,-0.15,22.77,36.87,-40.95
7,0,13,-0.15,-0.35,-0.15,22.77,36.87,-40.95
7,0,13,-0.11,-0.39,-0.14,22.46,26.18,-42.3
7,0,13,-0.09,-0.45,-0.12,22.09,15.32,-42.79
7,0,13,-0.12,-0.52,-0.07,20.75,4.94,-42.42
7,0,13,-0.2,-0.61,0.01,13.92,-3.54,-40.1
7,0,13,-0.2,-0.61,0.01,13.92,-3.54,-40.1
7,0,13,-0.36,-0.71,0.09,0.37,-9.89,-38.76
7,0,13,-0.69,-0.89,0.28,-17.7,-19.65,-39.43
7,0,12,-1.22,-1.01,0.67,-53.77,-37.35,-40.83
7,0,12,-1.68,-0.8,0.4,-120.18,-59.81,-42.91
7,0,12,-1.68,-0.8,0.4,-120.18,-59.81,-42.91
7,0,12,-1.97,-0.24,0.15,-171.26,-57.92,-43.82
7,0,12,-2.08,0.41,0.09,-187.32,-51.09,-43.03
7,0,12,-2.04,0.76,0.19,-155.64,-34,-41.44
7,0,12,-2.23,0.85,0.44,-106.93,13.55,-43.21
7,0,12,-2.23,0.85,0.44,-106.93,13.55,-43.21
7,0,12,-2.14,0.71,0.19,-93.93,45.78,-49.68
7,0,12,-2.05,0.66,-0.22,-104.13,31.01,-56.76
7,0,12,-1.82,0.53,-0.35,-83.56,7.02,-54.44
7,0,12,-1.82,0.53,-0.35,-39.06,2.93,-44.56
7,0,12,-1.65,0.2,-0.1,-39.06,2.93,-44.56
7,0,12,-1.57,-0.09,0.04,-12.63,4.39,-36.01
7,0,12,-1.57,-0.28,0.07,-8,9.46,-29.72
7,0,12,-1.49,-0.44,0.06,-21.73,22.03,-26.49
7,0,12,-1.49,-0.44,0.06,-45.47,27.28,-23.86
7,0,12,-1.4,-0.37,0.01,-45.47,27.28,-23.86
7,0,12,-1.44,-0.24,-0.09,-63.84,23.01,-18.68
7,0,12,-1.43,-0.18,-0.09,-73.67,18.49,-14.77
7,0,12,-1.43,-0.12,-0.09,-80.75,12.7,-11.66
7,0,12,-1.43,-0.12,-0.09,-79.28,7.63,-6.35
7,0,12,-1.42,-0.03,-0.13,-79.28,7.63,-6.35
7,1,12,-1.4,0.08,-0.1,-65.06,4.7,-0.06
7,1,12,-1.31,0.09,-0.13,-49.44,3.48,5.49
7,1,12,-1.29,0.18,-0.12,-29.85,4.09,12.7
7,1,12,-1.29,0.18,-0.12,-29.85,4.09,12.7
7,1,12,-1.25,0.14,-0.03,-7.45,11.05,18.62
7,1,12,-1.13,0.04,0.01,3.97,20.02,22.77
7,1,11,-1.1,-0.01,0.03,7.14,21.79,26.31
7,1,11,-1.1,-0.01,0.03,-1.77,17.4,27.28
7,1,11,-1.02,-0.03,0.03,-1.77,17.4,27.28
7,1,11,-0.85,0.02,0.05,-13.43,16.54,26.49
6,1,11,-0.71,-0.04,0.08,-11.05,19.29,28.56
6,1,11,-0.6,-0.08,0.13,-3.78,18.49,32.96
6,1,11,-0.6,-0.08,0.13,-5.86,10.86,35.4
6,1,11,-0.51,-0.11,0.16,-5.86,10.86,35.4
6,1,11,-0.47,-0.07,0.19,-16.36,-1.34,35.95
6,1,10,-0.41,-0.02,0.21,-25.45,-8,35.71
6,1,10,-0.39,0.04,0.23,-24.84,-6.65,37.11
6,1,10,-0.39,0.04,0.23,-24.84,-6.65,37.11
6,0,10,-0.39,0.05,0.24,-19.04,-0.12,40.22
6,0,10,-0.41,0.12,0.23,-21.55,13.06,40.34
6,0,11,-0.39,0.16,0.29,-25.63,30.52,36.8
6,0,11,-0.39,0.16,0.29,-31.74,44.25,31.49
6,0,11,-0.37,0.17,0.3,-31.74,44.25,31.49
6,0,11,-0.37,0.15,0.24,-41.99,51.45,24.9
6,0,11,-0.28,0.08,0.14,-52.49,50.29,19.1
6,-1,11,-0.22,0.02,0.05,-56.58,46.75,19.04
6,-1,11,-0.22,0.02,0.05,-56.58,46.75,19.04
6,-1,11,-0.15,-0.01,0.01,-52.92,47.18,22.22
6,-1,11,-0.1,-0.07,-0.02,-46.88,55.3,26.73
6,-1,11,-0.08,-0.05,-0.01,-41.69,62.68,30.58
6,-1,11,-0.07,0.01,0.01,-39.92,60.24,31.74
6,-1,11,-0.07,0.01,0.01,-39.92,60.24,31.74
6,-1,11,-0.07,0.04,0.02,-38.76,52.43,31.68
6,-1,11,-0.32,0.06,-0.04,-35.71,44.37,32.17
6,-1,11,-0.92,-0.09,-0.29,-29.72,33.81,31.43
6,-1,11,-0.92,-0.09,-0.29,-13.79,25.45,30.64
6,-1,11,-1.48,-0.17,-0.68,-13.79,25.45,30.64
6,-1,11,-1.45,-0.13,-0.87,26.67,19.53,26.49
6,0,11,-1.42,-0.16,-0.68,97.9,-7.63,27.71
6,0,11,-1.7,-0.27,0.32,171.39,-90.88,32.9
6,0,11,-1.7,-0.27,0.32,188.84,-207.28,37.9
6,0,11,-2.35,-0.31,1.37,188.84,-207.28,37.9
6,0,11,-2.94,0.12,2.11,142.58,-224,29.11
6,0,11,-2.45,0.23,1.69,92.77,-110.6,14.04
5,0,11,-2.07,0.24,0.6,51.21,3.48,8.06
5,0,11,-2.07,0.24,0.6,51.21,3.48,8.06
5,-1,11,-1.67,0.12,-0.11,42.48,33.33,9.58
5,-1,11,-1.48,0.02,-0.28,53.41,21.97,15.14
5,0,11,-1.35,-0.25,-0.19,70.25,9.77,21.42
5,0,11,-1.35,-0.25,-0.19,70.25,9.77,21.42
5,0,11,-1.25,-0.36,0,73.18,-2.14,25.7
5,0,11,-1.23,-0.32,0.09,66.04,-11.47,26.61
5,0,11,-1.2,-0.19,0.11,57.25,-14.04,24.23
5,0,11,-1.17,-0.12,0.03,50.9,-10.13,19.1
5,0,11,-1.17,-0.12,0.03,50.9,-10.13,19.1
5,0,11,-1.18,-0.12,-0.05,51.88,-6.35,12.33
5,0,11,-1.14,-0.06,-0.1,55.18,-3.48,4.88
5,0,11,-1.18,-0.19,-0.17,62.44,-2.08,-2.14
5,0,12,-1.11,-0.26,-0.23,65.67,-10.93,-6.96
6,0,12,-1.11,-0.26,-0.23,65.67,-10.93,-6.96
6,0,12,-1.04,-0.27,-0.25,65.55,-21.55,-10.01
6,0,12,-1.02,-0.31,-0.22,70.86,-30.4,-9.7
6,0,12,-0.93,-0.35,-0.11,78.61,-34.73,-7.14
6,0,12,-0.96,-0.38,-0.03,82.28,-32.41,-4.82
6,0,12,-0.96,-0.38,-0.03,82.28,-32.41,-4.82
6,0,12,-0.92,-0.41,0.06,83.37,-28.2,-1.16
6,0,12,-0.87,-0.42,0.13,79.71,-19.41,0.37
7,0,12,-0.77,-0.41,0.11,67.75,-11.72,-1.16
7,0,11,-0.77,-0.41,0.11,55.3,-9.7,-3.36
7,0,11,-0.71,-0.33,0.04,55.3,-9.7,-3.36
7,0,11,-0.61,-0.27,0.02,48.83,-8.42,-5.8
8,0,11,-0.51,-0.19,0,43.95,-9.4,-8.73
8,0,11,-0.43,-0.21,-0.06,39.73,-10.38,-11.6
9,0,11,-0.43,-0.21,-0.06,38.7,-8.12,-14.47
11,0,11,-0.36,-0.19,-0.08,38.7,-8.12,-14.47
12,0,11,-0.3,-0.2,-0.07,40.41,-3.66,-16.3
12,0,11,-0.27,-0.19,-0.07,41.38,2.81,-18.55
12,0,11,-0.24,-0.24,-0.06,43.21,10.44,-20.81
12,0,11,-0.24,-0.24,-0.06,42.24,17.82,-23.74
13,0,11,-0.16,-0.29,-0.02,42.24,17.82,-23.74
13,1,11,-0.13,-0.31,0,35.64,21.91,-25.57
13,0,11,-0.16,-0.29,0.04,26,22.71,-25.63
13,0,11,-0.2,-0.28,0.07,18.37,25.09,-25.02
13,0,11,-0.2,-0.28,0.07,7.87,30.7,-23.74
13,0,11,-0.21,-0.26,0.09,7.87,30.7,-23.74
13,0,11,-0.28,-0.27,0.09,-3.91,35.89,-21.36
13,0,11,-0.47,-0.4,0.04,-17.03,38.27,-18.49
13,0,10,-1.01,-0.65,-0.07,-31.8,38.51,-14.59
13,0,10,-1.01,-0.65,-0.07,-31.8,38.51,-14.59
13,0,10,-1.69,-0.84,-0.35,-50.66,41.44,-8.42
13,0,10,-1.98,-0.71,-0.62,-64.21,45.84,-5.74
13,0,11,-1.94,-0.18,-0.25,-47.49,28.63,-4.27
13,0,11,-2.1,0.33,0.4,-17.94,-46.51,-5.19
13,0,11,-2.1,0.33,0.4,2.93,-108.95,-7.2
13,0,11,-2.72,0.22,0.62,2.93,-108.95,-7.2
13,0,11,-2.54,0.05,0.85,-8.73,-82.52,-22.22
13,0,11,-2.22,-0.06,0.63,-21.79,-15.81,-35.1
13,0,11,-1.79,-0.2,0.27,-20.69,37.54,-38.45
13,0,11,-1.79,-0.2,0.27,-20.69,37.54,-38.45
13,0,11,-1.42,-0.29,0.14,-12.02,63.54,-32.59
13,0,11,-1.28,-0.34,0.06,-16.17,65.43,-24.84
13,0,11,-1.2,-0.35,-0.02,-31.31,57.37,-20.32
13,0,11,-1.16,-0.27,-0.12,-45.9,47.42,-17.64
13,0,11,-1.16,-0.27,-0.12,-45.9,47.42,-17.64
13,0,11,-1.2,-0.13,-0.14,-50.23,32.53,-14.1
13,0,11,-1.24,0.01,-0.14,-51.88,16.3,-11.9
13,0,11,-1.28,0.07,-0.08,-43.82,6.1,-9.58
13,0,11,-1.3,0.06,0.01,-34,-0.12,-5.98
13,0,11,-1.3,0.06,0.01,-34,-0.12,-5.98
13,0,11,-1.33,0.07,0.08,-26.12,-1.95,-2.81
13,0,11,-1.31,0.09,0.12,-17.52,3.36,0.55
13,0,11,-1.28,0.08,0.1,-6.71,14.47,3.97
12,0,11,-1.16,0.06,0.16,4.64,22.58,5.92
12,0,11,-1.16,0.06,0.16,4.64,22.58,5.92
12,0,11,-1.03,0.07,0.16,7.93,32.9,6.35
10,0,11,-0.91,0.02,0.15,7.26,41.02,7.45
9,0,11,-0.83,-0.1,0.17,9.03,42.97,9.4
9,-1,11,-0.83,-0.1,0.17,9.03,42.97,9.4
9,-1,11,-0.8,-0.13,0.2,5.07,42.3,9.95
9,-1,11,-0.7,-0.07,0.22,-4.46,44.37,9.09
9,-1,11,-0.62,-0.09,0.21,-15.81,47.79,6.16
9,-2,11,-0.62,-0.09,0.21,-21.73,49.5,4.58
9,-2,11,-0.57,-0.02,0.2,-21.73,49.5,4.58
9,-2,11,-0.48,-0.01,0.18,-26.67,47,1.95
9,-2,11,-0.41,0.04,0.12,-34.97,41.99,-1.16
9,-3,11,-0.33,0.13,0.08,-39.86,37.35,-3.48
8,-3,11,-0.33,0.13,0.08,-33.57,31.68,-3.78
8,-4,11,-0.26,0.16,0.08,-33.57,31.68,-3.78
8,-4,11,-0.23,0.17,0.06,-22.4,22.09,-3.72
8,-5,11,-0.22,0.17,0.01,-12.27,14.1,-3.36
8,-5,11,-0.19,0.14,0.03,-1.28,10.5,-2.81
8,-5,11,-0.19,0.14,0.03,-1.28,10.5,-2.81
8,-5,11,-0.17,0.13,0.02,6.59,7.57,-2.14
8,-5,11,-0.16,0.11,0.02,14.47,5.55,-1.16
8,-5,11,-0.14,0.08,0.04,23.38,6.04,0.43
8,-5,11,-0.1,0.07,0.06,30.52,6.59,1.89
7,-5,11,-0.1,0.07,0.06,30.52,6.59,1.89
6,-5,11,-0.08,0.04,0.07,37.41,6.96,2.99
6,-5,11,-0.09,0,0.08,44.86,6.59,4.39
6,-5,11,-0.22,-0.14,0.05,51.27,6.65,5.8
6,-5,11,-0.22,-0.14,0.05,51.27,6.65,5.8
6,-5,11,-0.59,-0.37,-0.05,49.74,9.77,6.1
6,-5,11,-1.19,-0.73,-0.28,49.8,15.87,8.97
6,-5,11,-1.46,-0.86,-0.52,56.34,27.4,13.67
6,-5,11,-1.23,-0.48,-0.58,74.16,25.02,12.57
6,-5,11,-1.23,-0.48,-0.58,74.16,25.02,12.57
6,-5,11,-1.3,-0.23,0.32,131.41,-37.66,15.08
6,-5,11,-1.87,-0.85,1.98,223.27,-150.33,20.45
6,-5,11,-2.63,-0.72,2.45,204.53,-171.69,15.2
6,-5,11,-2.65,-0.23,1.68,110.41,-75.81,2.01
6,-5,11,-2.65,-0.23,1.68,110.41,-75.81,2.01
6,-5,11,-2.07,-0.03,0.63,41.69,31.74,-16.78
6,-5,11,-1.79,0.09,-0.13,19.78,49.56,-25.15
6,-5,11,-1.55,0.06,-0.24,34.61,26.98,-25.51
6,-5,11,-1.55,0.06,-0.24,58.29,6.96,-21.18
6,-5,11,-1.47,-0.02,-0.18,58.29,6.96,-21.18
6,-5,11,-1.42,-0.1,-0.06,75.32,-4.03,-15.99
6,-5,11,-1.38,-0.21,0.05,85.75,-12.15,-10.8
6,-5,11,-1.35,-0.25,0.11,90.82,-13.49,-6.71
6,-5,11,-1.35,-0.28,0.05,93.81,-8.3,-5.74
6,-5,11,-1.35,-0.28,0.05,93.81,-8.3,-5.74
6,-5,11,-1.34,-0.3,-0.02,92.35,-6.71,-8.36
6,-5,11,-1.3,-0.32,-0.03,93.57,-7.26,-12.76
6,-5,11,-1.27,-0.33,-0.03,96.13,-8.48,-18.13
6,-5,11,-1.23,-0.3,-0.03,95.58,-10.74,-24.78
6,-5,11,-1.23,-0.3,-0.03,95.58,-10.74,-24.78
6,-4,11,-1.2,-0.25,-0.05,95.09,-10.38,-31.43
7,-4,11,-1.15,-0.24,-0.06,94.24,-7.87,-36.62
7,-3,11,-1.08,-0.22,-0.08,93.87,-1.04,-40.28
8,-3,11,-0.97,-0.24,-0.1,96.8,3.72,-41.14
10,-2,11,-0.97,-0.24,-0.1,99.49,5.49,-41.02
10,-2,11,-0.84,-0.24,-0.12,99.49,5.49,-41.02
11,-2,11,-0.81,-0.29,-0.15,100.71,6.35,-39.49
11,-2,11,-0.76,-0.32,-0.15,101.26,3.85,-37.72
11,-1,11,-0.7,-0.29,-0.13,103.52,0,-34
11,-1,12,-0.64,-0.26,-0.09,107.24,-3.23,-29.79
11,-1,12,-0.64,-0.26,-0.09,107.24,-3.23,-29.79
11,-1,12,-0.56,-0.25,-0.04,108.64,-0.67,-27.83
11,-1,12,-0.5,-0.27,0.02,109.13,4.88,-26.73
11,-1,12,-0.45,-0.27,0.04,105.04,10.38,-26.67
11,-1,12,-0.4,-0.28,0.05,96.68,16.24,-27.28
12,-1,12,-0.4,-0.28,0.05,96.68,16.24,-27.28
12,-1,12,-0.35,-0.29,0.04,85.27,19.65,-28.5
12,-1,12,-0.34,-0.29,0.04,72.57,21.48,-29.36
12,-1,11,-0.31,-0.27,0.05,61.04,22.58,-29.72
12,-1,11,-0.31,-0.27,0.05,51.94,26.43,-29.66
12,-1,11,-0.3,-0.23,0.05,51.94,26.43,-29.66
12,-1,11,-0.27,-0.2,0.05,44.92,32.23,-29.42
12,-1,9,-0.28,-0.2,0.03,40.77,37.11,-29.17
13,-2,5,-0.28,-0.17,0.02,38.45,41.02,-28.75
13,-2,1,-0.28,-0.17,0.02,37.9,45.41,-28.93
13,-2,0,-0.28,-0.18,0.03,37.9,45.41,-28.93
13,-2,-1,-0.33,-0.23,0.02,38.88,47.73,-29.36
14,-2,-1,-0.48,-0.33,-0.03,38.76,47.49,-28.69
14,-2,-1,-0.76,-0.55,-0.15,34,46.81,-28.2
15,-2,-1,-0.76,-0.55,-0.15,21.85,44.49,-26.92
16,-2,-1,-1.19,-0.73,-0.37,21.85,44.49,-26.92
16,-2,-1,-1.39,-0.56,-0.59,8.54,31.98,-25.57
16,-2,-1,-1.42,-0.21,-0.37,8.06,-10.31,-25.45
16,-2,-1,-1.86,0,0.18,13.73,-98.45,-22.34
16,-2,-1,-2.38,0.05,0.71,31.13,-182.86,-24.66
16,-2,-1,-2.38,0.05,0.71,31.13,-182.86,-24.66
16,-2,-1,-2.91,0.12,1,47.79,-188.72,-32.65
16,-2,-1,-2.71,-0.2,1.26,60.3,-102.36,-43.27
16,-2,-1,-2.13,-0.43,0.75,49.8,2.08,-53.59
16,-2,-1,-1.67,-0.42,0.33,29.91,59.69,-52.73
16,-2,-1,-1.67,-0.42,0.33,13.18,69.76,-45.65
16,-2,-1,-1.5,-0.39,0.09,13.18,69.76,-45.65
16,-2,-1,-1.42,-0.34,-0.01,-3.66,59.57,-38.7
16,-2,-1,-1.39,-0.32,-0.04,-16.36,46.2,-32.35
16,-2,-1,-1.32,-0.25,-0.03,-24.17,36.44,-26.12
16,-2,-1,-1.27,-0.13,0.03,-26,28.02,-20.75
16,-2,-1,-1.27,-0.13,0.03,-26,28.02,-20.75
16,-2,-1,-1.33,-0.07,0.06,-22.34,19.1,-15.75
15,-2,-1,-1.38,-0.01,0.13,-14.59,12.15,-11.41
15,-2,-1,-1.36,0.05,0.17,-6.59,10.74,-7.81
15,-2,-1,-1.31,0.02,0.2,1.71,11.72,-3.85
15,-2,-1,-1.31,0.02,0.2,1.71,11.72,-3.85
15,-3,-1,-1.28,0.03,0.18,12.21,16.66,0.61
15,-3,-1,-1.17,-0.01,0.15,19.47,24.6,6.41
15,-3,-1,-1.08,-0.1,0.16,23.25,26.86,10.56
15,-3,-1,-0.98,-0.09,0.14,17.27,24.66,13.31
14,-3,-1,-0.98,-0.09,0.14,17.27,24.66,13.31
14,-3,-1,-0.88,-0.13,0.15,8.91,19.96,13.55
14,-4,-1,-0.76,-0.14,0.15,3.72,15.87,13.31
14,-4,-1,-0.7,-0.1,0.2,1.16,14.71,14.83
14,-5,-1,-0.61,-0.01,0.27,3.72,13.37,17.4
14,-5,-1,-0.61,-0.01,0.27,3.72,13.37,17.4
13,-5,-1,-0.55,0.02,0.31,5.55,10.56,19.23
13,-5,-1,-0.49,0.03,0.31,2.69,9.4,20.14
13,-5,-1,-0.46,0.04,0.26,0.85,15.2,20.39
13,-5,-1,-0.46,0.04,0.26,-1.95,28.32,20.08
13,-5,-1,-0.39,0.06,0.25,-1.95,28.32,20.08
13,-5,-1,-0.36,0.07,0.26,-8.24,37.6,19.04
13,-5,-1,-0.37,0.09,0.22,-19.53,39.43,16.97
12,-5,-1,-0.33,0.11,0.2,-30.52,40.89,12.57
12,-6,-1,-0.33,0.11,0.2,-30.52,40.89,12.57
12,-6,-1,-0.31,0.17,0.14,-34.36,44.98,9.34
12,-7,-1,-0.31,0.17,0.06,-31.07,49.74,7.45
12,-7,-1,-0.26,0.12,-0.02,-21.79,49.8,7.75
12,-7,-1,-0.19,0.08,-0.07,-7.93,43.52,10.25
12,-7,-1,-0.19,0.08,-0.07,6.71,34.55,13.55
12,-7,-1,-0.12,0.07,-0.1,6.71,34.55,13.55
11,-7,-1,-0.12,0.05,-0.11,20.08,28.32,16.66
11,-7,-1,-0.12,0.02,-0.11,31.31,25.57,18.92
11,-7,-1,-0.18,-0.02,-0.11,39.43,24.54,20.87
11,-7,-1,-0.18,-0.02,-0.11,46.2,23.13,22.28
11,-7,-1,-0.35,-0.17,-0.16,46.2,23.13,22.28
11,-7,-1,-0.79,-0.44,-0.32,49.87,20.81,23.38
11,-7,-1,-1.28,-0.66,-0.68,51.33,19.96,25.63
11,-6,-1,-1.19,-0.52,-0.88,57.74,15.44,26.12
11,-6,-1,-1.19,-0.52,-0.88,67.38,-28.93,24.84
11,-6,-1,-1.06,-0.21,-0.92,67.38,-28.93,24.84
11,-6,-1,-1.38,-0.09,-0.47,91,-120.42,24.84
11,-6,-1,-2,0.12,0.99,162.6,-200.56,32.41
11,-6,-1,-2.96,-0.21,2.27,239.75,-273.44,38.21
11,-6,-1,-3.28,-0.42,2.67,192.32,-241.94,25.21
11,-6,-1,-3.28,-0.42,2.67,192.32,-241.94,25.21
11,-6,-1,-2.61,-0.33,1.6,131.71,-70.13,5.07
11,-6,-1,-1.84,-0.17,0.53,65.19,65.43,-9.64
11,-6,-1,-1.58,-0.07,-0.19,41.87,80.14,-9.52
11,-6,-1,-1.41,-0.12,-0.43,49.01,54.08,-4.27
11,-6,-1,-1.41,-0.12,-0.43,49.01,54.08,-4.27
10,-6,-1,-1.3,-0.11,-0.48,70.07,24.96,2.26
10,-6,-1,-1.27,-0.18,-0.35,96.68,2.5,7.69
9,-6,-1,-1.26,-0.28,-0.17,118.96,-6.53,10.44
10,-6,-1,-1.32,-0.35,-0.03,128.54,-11.6,9.52
10,-6,-1,-1.32,-0.35,-0.03,125.79,-9.89,5.31
10,-6,-1,-1.3,-0.35,0.02,125.79,-9.89,5.31
10,-6,-1,-1.27,-0.48,0.03,118.65,-4.52,-1.77
10,-6,-1,-1.25,-0.34,-0.03,100.16,-5.98,-11.35
10,-5,-1,-1.24,-0.37,-0.15,86.79,-10.44,-17.64
10,-5,-1,-1.17,-0.36,-0.19,88.01,-12.51,-21.48
10,-5,-1,-1.17,-0.36,-0.19,93.69,-12.15,-23.19
10,-5,-1,-1.14,-0.41,-0.16,93.69,-12.15,-23.19
10,-5,0,-1.17,-0.46,-0.12,99.85,-7.14,-21.18
11,-5,0,-1.16,-0.41,-0.07,106.45,-4.03,-16.97
11,-5,0,-1.02,-0.38,-0.04,108.22,-5.62,-14.34
12,-4,0,-0.87,-0.43,-0.04,108.15,-5.98,-11.41
12,-4,0,-0.87,-0.43,-0.04,108.15,-5.98,-11.41
12,-4,0,-0.73,-0.42,-0.04,104.37,-4.82,-10.44
12,-4,0,-0.65,-0.3,-0.02,97.72,-7.75,-10.44
12,-3,0,-0.57,-0.27,-0.01,94.97,-14.53,-10.56
13,-3,0,-0.53,-0.3,-0.01,91.8,-19.78,-10.31
13,-3,0,-0.53,-0.3,-0.01,87.04,-21.42,-10.68
13,-3,0,-0.48,-0.24,0,87.04,-21.42,-10.68
13,-3,0,-0.39,-0.16,0.04,84.05,-18.43,-11.84
14,-3,0,-0.3,-0.16,0.09,81.97,-15.32,-12.88
15,-3,0,-0.25,-0.1,0.1,77.09,-14.53,-14.04
15,-3,0,-0.25,-0.1,0.1,71.29,-13.18,-15.01
15,-3,-1,-0.23,-0.09,0.08,71.29,-13.18,-15.01
15,-3,-1,-0.23,-0.09,0.06,64.94,-6.84,-15.75
16,-3,-1,-0.25,-0.09,0.02,58.59,2.01,-16.85
16,-3,-1,-0.2,-0.11,0,52.8,11.6,-18.43
16,-3,-1,-0.2,-0.11,0,48.58,22.22,-19.78
16,-3,-1,-0.17,-0.13,0,48.58,22.22,-19.78
16,-3,-1,-0.12,-0.13,-0.01,45.1,33.39,-20.45
16,-3,-1,-0.04,-0.14,0,45.84,43.58,-21.36
16,-3,-1,0,-0.16,0.03,47.79,47.55,-23.5
16,-3,-1,-0.02,-0.14,0.03,45.1,44.31,-26.18
16,-3,-1,-0.02,-0.14,0.03,45.1,44.31,-26.18
16,-3,-1,-0.09,-0.17,0.04,43.27,37.11,-29.11
16,-3,-1,-0.19,-0.22,0.07,44.31,31.43,-31.31
16,-3,-1,-0.41,-0.37,0.11,42.79,26.43,-34.73
16,-3,-1,-0.93,-0.6,0.05,30.88,21.36,-41.38
16,-3,-1,-0.93,-0.6,0.05,30.88,21.36,-41.38
16,-3,-1,-2.72,-1.42,-0.54,3.17,23.44,-49.56
16,-3,-1,-3.77,-1.8,-1.8,-49.13,79.22,-52.31
17,-3,-1,-2.69,-1.52,-1.18,-106.81,176.09,-59.02
17,-3,-1,-1.05,-0.25,-0.12,-149.05,77.33,-55.42
17,-3,-1,-1.05,-0.25,-0.12,-216.37,-203.74,-46.75
17,-3,-1,-2.02,0.73,1.4,-216.37,-203.74,-46.75
16,-3,-1,-3.58,1.48,2.15,-208.62,-307.43,-45.47
16,-3,-1,-2.98,0.82,0.55,-72.27,-96.13,-62.01
16,-3,-1,-2.08,0.49,0.16,-18.55,75.81,-54.87
16,-3,-1,-1.71,0.32,-0.02,-21.61,89.66,-44.62
16,-3,-1,-1.71,0.32,-0.02,-21.61,89.66,-44.62
16,-3,-1,-1.54,0.23,-0.23,-19.17,70.5,-41.08
16,-3,-1,-1.56,0.04,-0.1,-5.92,65.73,-36.38
16,-3,-1,-1.37,-0.12,-0.19,-6.65,60.3,-34.61
16,-3,-1,-1.29,-0.16,-0.19,-17.94,38.39,-28.75
16,-3,-1,-1.29,-0.16,-0.19,-17.94,38.39,-28.75
16,-3,-1,-1.35,-0.09,-0.11,-18.25,10.86,-19.29
16,-3,-1,-1.31,0.02,0,-12.63,-5.98,-8.79
16,-3,-1,-1.29,0.14,0.04,1.53,-9.64,0.37
16,-3,-1,-1.21,0.12,0.08,31.01,-9.58,8.36
16,-3,-1,-1.21,0.12,0.08,49.74,-8.42,12.82
16,-3,-1,-1.18,0.09,0.11,49.74,-8.42,12.82
15,-3,-1,-1.04,0.07,0.15,53.77,-4.94,13.79
15,-3,0,-0.92,0.07,0.13,52.92,-3.54,14.83
15,-3,0,-0.75,0.08,0.12,57.43,-5.49,18.19
15,-3,0,-0.75,0.08,0.12,57.43,-5.49,18.19
14,-3,0,-0.7,0.02,0.16,63.29,-14.71,20.69
12,-3,0,-0.62,0.06,0.14,51.51,-28.2,23.19
11,-3,0,-0.54,-0.06,0.16,45.29,-34.67,24.78
11,-4,0,-0.54,-0.06,0.16,42.18,-29.24,25.94
11,-4,0,-0.46,-0.09,0.24,42.18,-29.24,25.94
11,-4,0,-0.43,-0.05,0.2,35.89,-18.19,28.32
11,-4,0,-0.46,-0.08,0.24,25.33,-4.88,29.24
11,-4,0,-0.46,-0.06,0.27,13.06,6.9,28.02
11,-4,0,-0.46,-0.06,0.27,13.06,6.9,28.02
11,-4,0,-0.34,-0.04,0.3,-9.03,19.53,23.38
11,-4,0,-0.36,-0.03,0.25,-34.91,35.52,20.2
11,-5,0,-0.31,-0.03,0.23,-57.92,49.38,13.61
10,-5,0,-0.24,-0.02,0.18,-67.5,56.09,6.16
10,-5,-1,-0.24,-0.02,0.18,-67.5,56.09,6.16
10,-5,-3,-0.2,-0.04,0.1,-70.19,59.94,4.27
10,-5,-3,-0.14,-0.05,0.05,-63.96,64.58,6.35
10,-6,-4,-0.08,-0.01,0.01,-50.78,70.8,9.7
10,-6,-4,0.07,0.04,-0.01,-36.19,74.71,12.08
10,-6,-4,0.07,0.04,-0.01,-36.19,74.71,12.08
10,-6,-4,0,0.01,-0.09,-23.8,70.19,15.87
10,-6,-4,0.04,0.04,-0.12,-13.73,62.56,18.07
10,-6,-4,0.05,0.03,-0.09,2.69,47.67,19.53
10,-6,-4,0.05,0.03,-0.09,16.42,30.46,22.46
10,-6,-4,-0.16,0,-0.11,16.42,30.46,22.46
10,-6,-4,-0.95,-0.29,-0.3,26.67,11.96,27.65
10,-6,-4,-1.72,-0.42,-0.66,34.85,-1.34,35.4
10,-6,-4,-1.78,-0.41,-0.93,52.06,0.98,37.48
10,-6,-4,-1.78,-0.41,-0.93,93.69,0,36.19
10,-6,-4,-1.64,-0.12,-0.71,93.69,0,36.19
10,-6,-4,-1.9,0,0.71,208.37,-53.28,46.51
10,-6,-4,-2.51,-0.44,1.9,287.96,-144.65,47.97
10,-6,-4,-2.91,0.06,1.93,206.18,-178.47,32.9
10,-6,-4,-2.91,0.06,1.93,125.06,-106.99,15.08
10,-6,-4,-2.55,0.21,1.28,125.06,-106.99,15.08
10,-6,-4,-2.1,0.14,0.58,86.67,-29.11,10.38
10,-6,-4,-1.64,-0.13,0.18,72.45,9.28,10.5
10,-6,-4,-1.51,-0.24,-0.07,69.76,21.12,15.44
10,-6,-4,-1.51,-0.24,-0.07,70.25,18.37,20.2
10,-6,-4,-1.4,-0.29,-0.07,70.25,18.37,20.2
10,-6,-4,-1.26,-0.27,-0.07,64.51,11.23,21.24
10,-6,-4,-1.25,-0.24,-0.09,58.72,0.49,20.51
10,-6,-4,-1.25,-0.14,-0.12,57.74,-3.78,18.8
10,-6,-4,-1.24,-0.1,-0.21,61.65,-2.56,15.87
10,-6,-4,-1.24,-0.1,-0.21,61.65,-2.56,15.87
10,-5,-3,-1.19,-0.05,-0.21,74.58,-2.32,12.08
9,-5,-3,-1.16,-0.14,-0.24,89.36,-4.46,6.77
9,-5,-3,-1.07,-0.2,-0.19,100.4,-19.71,0.73
9,-5,-3,-0.99,-0.15,-0.15,96.37,-37.9,-6.59
9,-4,-3,-0.99,-0.15,-0.15,95.64,-44.56,-12.88
9,-4,-3,-0.94,-0.18,-0.13,95.64,-44.56,-12.88
9,-3,-3,-0.86,-0.22,-0.07,99.18,-32.96,-16.91
9,-3,-3,-0.79,-0.32,0.05,103.88,-16.24,-18.8
9,-3,-3,-0.72,-0.36,0.1,101.2,-6.16,-18.43
10,-3,-3,-0.67,-0.32,0.07,93.38,-3.72,-16.11
10,-3,-3,-0.67,-0.32,0.07,86.3,-0.43,-14.83
10,-3,-3,-0.52,-0.35,0.03,86.3,-0.43,-14.83
10,-3,-3,-0.38,-0.3,0,76.72,3.72,-15.32
10,-3,-3,-0.36,-0.36,-0.07,65.06,5.55,-15.38
10,-3,-3,-0.3,-0.35,-0.06,57.92,3.72,-16.72
10,-2,-3,-0.21,-0.28,-0.04,56.34,-1.4,-15.69
10,-2,-3,-0.21,-0.28,-0.04,56.34,-1.4,-15.69
10,-2,-3,-0.19,-0.24,-0.04,54.63,-2.44,-14.71
10,-2,-3,-0.18,-0.25,-0.08,50.9,2.81,-14.47
10,-2,-3,-0.1,-0.23,-0.09,46.02,11.05,-17.15
10,-2,-2,-0.04,-0.24,-0.08,42.79,17.64,-19.65
10,-2,-2,-0.04,-0.24,-0.08,37.96,20.63,-21.48
10,-2,-2,-0.03,-0.25,-0.07,37.96,20.63,-21.48
10,-2,-1,-0.05,-0.26,-0.05,32.47,21.06,-22.64
11,-2,-1,-0.04,-0.23,-0.02,26.31,21.61,-22.64
11,-2,-1,-0.07,-0.3,0.04,23.56,19.84,-22.52
11,-2,-1,-0.1,-0.29,0.08,14.59,18.98,-24.72
11,-2,-1,-0.1,-0.29,0.08,14.59,18.98,-24.72
11,-2,-1,-0.19,-0.29,0.11,-0.12,16.05,-24.96
11,-2,-1,-0.56,-0.5,0.28,-12.51,1.53,-24.05
11,-2,-1,-1.57,-1,0.3,-40.41,-28.14,-27.65
11,-2,-1,-3.12,-1.45,-0.52,-104.98,-59.39,-27.65
11,-2,-1,-3.12,-1.45,-0.52,-178.34,-61.83,-32.35
11,-2,-1,-2.87,-0.47,-0.39,-178.34,-61.83,-32.35
11,-2,-1,-2.75,0.44,0.87,-195.92,-78.86,-35.22
11,-2,-1,-2.9,0.46,1.01,-120.24,-89.29,-35.64
11,-2,-1,-2.7,0.53,0.39,-67.38,8.67,-40.77
11,-2,-1,-2.12,0.42,0.19,-73.43,54.44,-48.46
11,-2,-1,-2.12,0.42,0.19,-82.7,27.1,-45.53
11,-2,-1,-1.78,0.42,0.05,-82.7,27.1,-45.53
11,-2,-1,-1.66,0.25,0.17,-50.66,7.51,-33.57
11,-2,-1,-1.64,-0.07,0.24,-22.95,14.83,-22.83
11,-2,-1,-1.55,-0.32,0.13,-21.12,29.48,-15.99
11,-2,-1,-1.44,-0.42,0.09,-30.88,31.13,-9.22
11,-2,-1,-1.44,-0.42,0.09,-30.88,31.13,-9.22
11,-2,-1,-1.41,-0.29,0.09,-43.52,26.31,-1.83
11,-2,-1,-1.39,-0.05,0.07,-57.25,18.37,3.54
11,-2,-1,-1.36,0.17,0.01,-63.35,13.37,7.32
11,-2,-1,-1.28,0.22,0.02,-54.5,9.34,11.47
11,-2,-1,-1.28,0.22,0.02,-54.5,9.34,11.47
11,-2,-1,-1.32,0.25,-0.02,-45.9,2.81,17.03
11,-2,-1,-1.17,0.18,-0.01,-28.69,2.14,23.56
11,-2,-1,-1.17,0.17,0.01,-6.35,3.36,29.3
11,-2,-1,-1,0.03,0.04,8.42,5.74,31.62
11,-2,-1,-1,0.03,0.04,8.42,5.74,31.62
11,-2,-1,-0.82,-0.11,0.11,17.4,8.48,34.48
11,-2,-1,-0.73,-0.17,0.18,22.34,9.09,38.45
11,-2,-1,-0.7,-0.21,0.25,15.2,6.41,40.34
11,-2,-1,-0.65,-0.17,0.27,-7.51,3.97,38.51
11,-2,-1,-0.65,-0.17,0.27,-7.51,3.97,38.51
11,-2,-1,-0.58,-0.1,0.27,-32.1,4.09,35.34
11,-2,-1,-0.51,-0.01,0.24,-44.86,10.86,33.57
11,-2,-1,-0.45,0.02,0.29,-45.1,23.07,33.39
11,-2,-1,-0.39,0.1,0.3,-49.01,32.1,31.56
11,-2,-1,-0.39,0.1,0.3,-49.01,32.1,31.56
10,-2,-1,-0.31,0.1,0.3,-57.86,34.48,27.89
10,-3,-1,-0.29,0.1,0.27,-67.75,37.35,22.28
10,-3,-1,-0.29,0.11,0.21,-78.06,42.66,16.42
10,-3,-1,-0.29,0.11,0.21,-85.21,47.97,10.5
10,-3,-1,-0.28,0.1,0.14,-85.21,47.97,10.5
10,-3,-1,-0.28,0.07,0.06,-86.24,54.08,6.35
10,-3,-1,-0.26,0.04,-0.01,-80.2,61.65,5.31
10,-3,-1,-0.22,0.02,-0.08,-69.21,71.17,7.14
10,-3,-1,-0.22,0.02,-0.08,-56.21,78.8,10.8
9,-3,-1,-0.14,0.03,-0.11,-56.21,78.8,10.8
9,-3,-1,-0.08,0.04,-0.13,-42.3,77.76,15.2
9,-3,-1,-0.06,0.08,-0.14,-30.58,67.57,19.59
9,-3,-1,-0.06,0.1,-0.16,-21.73,53.71,22.77
9,-3,-1,-0.06,0.1,-0.16,-14.83,43.4,24.35
9,-3,-1,-0.06,0.09,-0.18,-14.83,43.4,24.35
9,-3,-1,-0.04,0.08,-0.17,-6.65,37.84,24.72
9,-3,-1,-0.06,0.11,-0.18,0.31,33.87,24.9
9,-3,-2,-0.28,0.13,-0.29,5.31,27.83,23.93
9,-3,-4,-0.28,0.13,-0.29,10.25,17.88,20.81
9,-3,-5,-1.03,0.07,-0.67,10.25,17.88,20.81
9,-3,-6,-2.02,0.03,-1.4,37.6,-1.46,18.31
9,-3,-6,-1.87,-0.15,-1.4,111.76,-26.67,21.79
9,-3,-6,-2.01,-0.59,-0.85,192.93,-106.14,31.8
9,-3,-6,-2.73,-0.9,1.54,255.19,-259.34,27.89
9,-3,-6,-2.73,-0.9,1.54,255.19,-259.34,27.89
9,-3,-6,-4,-1.02,3.92,271.12,-366.94,17.88
9,-3,-6,-3.25,-0.69,2.94,232.48,-198.85,0.06
9,-3,-6,-2.29,0.07,1.09,90.58,17.21,-14.95
9,-3,-6,-2.18,0.26,-0.18,42.36,54.32,-5.8
8,-3,-6,-2.18,0.26,-0.18,42.36,54.32,-5.8
8,-3,-6,-1.65,-0.01,-0.1,63.72,55.18,5.43
8,-3,-6,-1.45,-0.06,-0.05,75.44,48.1,9.95
8,-3,-6,-1.24,-0.17,-0.04,62.32,33.57,10.31
8,-3,-6,-1.16,-0.24,-0.02,48.46,32.23,7.75
8,-3,-6,-1.16,-0.24,-0.02,48.46,32.23,7.75
8,-3,-6,-1.08,-0.26,-0.16,41.2,34.79,6.29
8,-3,-6,-0.99,-0.19,-0.23,41.26,25.27,5.92
8,-3,-6,-1.05,0.02,-0.21,48.89,11.11,2.87
8,-2,-6,-1.05,0.02,-0.13,62.68,2.44,-4.52
8,-2,-6,-1.05,0.02,-0.13,68.36,-8.3,-12.88
8,-2,-6,-0.98,-0.09,-0.04,68.36,-8.3,-12.88
8,-2,-6,-1.02,-0.24,-0.02,68.12,-17.58,-21.12
8,-2,-6,-0.93,-0.27,0,65,-24.72,-25.15
8,-2,-6,-0.91,-0.32,-0.05,61.22,-21.91,-26.67
8,-2,-6,-0.94,-0.34,-0.08,63.6,-22.22,-23.38
8,-2,-6,-0.94,-0.34,-0.08,68.85,-24.41,-16.72
8,-1,-6,-0.89,-0.41,-0.05,68.85,-24.41,-16.72
9,-1,-6,-0.83,-0.38,0.03,75.87,-19.23,-9.89
9,-1,-6,-0.74,-0.35,0.09,81.12,-14.04,-5.68
9,-2,-6,-0.63,-0.31,0.13,75.38,-9.83,-5.86
9,-2,-6,-0.51,-0.26,0.13,70.19,-2.69,-7.63
9,-2,-7,-0.51,-0.26,0.13,65.06,3.78,-11.17
9,-2,-7,-0.4,-0.32,0.07,65.06,3.78,-11.17
10,-2,-7,-0.3,-0.33,0,55.54,4.09,-15.14
10,-2,-7,-0.25,-0.36,-0.02,48.65,1.89,-17.58
10,-2,-7,-0.21,-0.3,-0.03,42.66,5,-19.29
10,-2,-6,-0.15,-0.31,-0.03,38.09,10.31,-19.53
10,-2,-6,-0.15,-0.31,-0.03,38.09,10.31,-19.53
10,-2,-6,-0.11,-0.28,-0.04,32.78,14.59,-19.84
10,-2,-6,-0.09,-0.26,-0.02,26.43,15.26,-21.3
10,-2,-6,-0.04,-0.24,-0.01,17.52,15.75,-22.89
10,-1,-6,-0.07,-0.23,0,9.52,16.78,-23.5
11,-1,-6,-0.07,-0.23,0,2.38,19.1,-23.44
11,-2,-6,-0.1,-0.22,0.04,2.38,19.1,-23.44
11,-2,-6,-0.13,-0.2,0.04,-4.39,23.62,-23.19
12,-2,-6,-0.19,-0.21,0.08,-11.23,27.89,-23.01
12,-2,-6,-0.32,-0.23,0.06,-21.55,28.63,-22.83
12,-2,-6,-0.59,-0.29,-0.02,-33.51,27.1,-23.07
12,-2,-6,-0.59,-0.29,-0.02,-33.51,27.1,-23.07
12,-2,-6,-1.12,-0.44,-0.19,-44.31,23.32,-24.54
12,-2,-6,-1.56,-0.45,-0.36,-53.65,8.91,-27.04
12,-2,-6,-1.99,-0.25,-0.43,-66.96,-24.6,-22.89
12,-2,-6,-2.46,-0.23,0.29,-78,-74.58,-16.48
12,-2,-6,-2.92,0.05,1.07,-72.39,-128.85,-18.62
12,-2,-6,-2.77,0.03,0.91,-52,-81.97,-28.44
12,-2,-6,-2.77,0.03,0.91,-52,-81.97,-28.44
12,-2,-6,-2.37,0.32,0.3,-49.19,13.49,-38.94
12,-2,-5,-2.04,0.46,-0.07,-78.74,32.47,-41.44
12,-2,-5,-1.82,0.53,0.02,-85.57,17.33,-35.1
12,-2,-5,-1.65,0.26,0.15,-61.95,23.38,-26.98
11,-2,-5,-1.65,0.26,0.15,-61.95,23.38,-26.98
11,-2,-5,-1.57,-0.04,0.04,-43.15,34.48,-20.57
11,-2,-5,-1.43,-0.23,-0.01,-38.88,34.61,-15.32
11,-2,-5,-1.45,-0.18,0.01,-43.82,29.42,-9.83
11,-2,-5,-1.5,-0.03,0.05,-53.65,22.16,-5.92
11,-2,-5,-1.63,0.12,0.01,-63.11,14.04,-4.33
11,-2,-5,-1.63,0.12,0.01,-63.11,14.04,-4.33
11,-1,-5,-1.68,0.18,-0.03,-65.67,8.24,-2.38
11,-1,-5,-1.62,0.19,-0.05,-60.49,10.74,1.4
10,-1,-5,-1.51,0.15,-0.07,-52.49,18.37,6.53
10,-1,-6,-1.37,0.1,-0.07,-39.61,24.78,12.21
10,0,-6,-1.37,0.1,-0.07,-39.61,24.78,12.21
10,0,-6,-1.25,-0.01,-0.02,-24.11,28.87,18.01
9,0,-6,-1.14,-0.03,0.04,-9.89,36.56,22.52
9,0,-6,-0.92,-0.04,0.11,0.73,44.43,23.5
9,0,-6,-0.75,-0.12,0.05,-2.81,42.3,23.62
9,-1,-6,-0.75,-0.12,0.05,-2.81,42.3,23.62
9,-1,-6,-0.57,-0.1,0.06,-8.54,33.33,24.05
9,-1,-6,-0.51,-0.01,0.11,-7.39,26.73,26.67
9,-1,-6,-0.4,0.01,0.17,-4.27,21.12,28.56
9,-1,-6,-0.3,-0.02,0.25,-14.04,10.44,26.49
8,-1,-6,-0.3,-0.02,0.25,-14.04,10.44,26.49
8,-1,-6,-0.31,0.04,0.22,-35.34,0.37,23.74
8,-1,-6,-0.35,0.11,0.22,-47.67,-0.24,21.73
8,-1,-6,-0.38,0.04,0.22,-48.52,11.11,21.42
8,-1,-6,-0.34,0,0.22,-47.67,28.75,18.8
8,-1,-6,-0.34,0,0.22,-47.67,28.75,18.8
7,-1,-6,-0.29,0.01,0.2,-48.16,46.81,15.32
7,-1,-6,-0.23,0.04,0.19,-53.28,61.58,12.51
7,-2,-6,-0.18,0.04,0.15,-61.83,69.52,9.89
7,-3,-6,-0.15,0,0.08,-66.65,73.55,9.46
6,-4,-6,-0.15,0,0.08,-66.65,73.55,9.46
6,-4,-6,-0.11,-0.03,0.01,-62.01,75.13,13.12
6,-4,-6,-0.08,-0.05,-0.03,-49.87,75.99,17.76
6,-4,-6,-0.05,-0.03,-0.05,-35.64,73.36,22.46
6,-4,-6,-0.03,-0.04,-0.06,-24.6,64.51,26
6,-4,-6,-0.03,-0.04,-0.06,-24.6,64.51,26
7,-4,-6,-0.03,-0.01,-0.08,-21.73,52.06,27.71
7,-4,-6,-0.05,0.03,-0.08,-21.73,38.39,28.93
7,-4,-6,-0.26,0.01,-0.1,-19.41,21.48,31.49
7,-4,-6,-1.18,-0.21,-0.36,-14.22,-1.77,35.89
7,-4,-6,-1.18,-0.21,-0.36,-2.5,-28.08,42.66
7,-4,-6,-1.71,-0.11,-0.72,-2.5,-28.08,42.66
6,-4,-6,-1.84,0.17,-0.89,29.48,-45.41,48.95
6,-4,-6,-1.93,0.63,-0.36,101.38,-86.24,49.01
6,-4,-6,-2.33,0.16,1.24,225.16,-165.83,50.42
6,-4,-6,-3.03,-0.16,2.45,278.56,-214.78,35.95
6,-4,-6,-3.03,-0.16,2.45,278.56,-214.78,35.95
6,-4,-6,-2.57,-0.15,2.11,206.42,-166.14,13.73
6,-4,-6,-2.24,0.08,1.03,118.35,-48.03,4.94
6,-4,-6,-1.67,0.04,0.23,74.4,22.09,7.2
6,-4,-6,-1.54,-0.02,-0.21,67.26,27.28,10.25
6,-4,-6,-1.54,-0.02,-0.21,89.9,15.99,15.14
6,-4,-6,-1.44,-0.16,-0.22,89.9,15.99,15.14
6,-4,-6,-1.32,-0.34,-0.13,101.87,7.45,16.11
6,-4,-6,-1.23,-0.41,-0.09,97.84,-2.01,12.15
6,-4,-6,-1.23,-0.36,-0.12,87.28,-9.89,7.69
6,-4,-6,-1.23,-0.27,-0.12,82.34,-14.59,4.39
6,-4,-6,-1.23,-0.27,-0.12,82.34,-14.59,4.39
6,-4,-6,-1.21,-0.21,-0.15,84.84,-14.22,1.46
6,-3,-6,-1.2,-0.18,-0.17,93.02,-20.32,-2.26
6,-3,-6,-1.23,-0.1,-0.09,99.06,-32.29,-6.59
6,-2,-6,-1.11,-0.13,-0.01,99.37,-33.75,-12.7
6,-1,-6,-1.02,-0.16,0.01,95.15,-25.76,-18.07
6,-1,-6,-1.02,-0.16,0.01,95.15,-25.76,-18.07
6,-1,-6,-0.86,-0.16,0.03,87.46,-14.47,-22.09
6,-1,-6,-0.73,-0.12,-0.03,79.22,-5.25,-23.93
7,-1,-5,-0.68,-0.13,-0.1,75.99,0.67,-23.25
7,-1,-5,-0.62,-0.22,-0.08,76.97,2.26,-21.97
7,-1,-5,-0.62,-0.22,-0.08,76.42,6.47,-20.02
7,-1,-5,-0.5,-0.24,-0.03,76.42,6.47,-20.02
7,-1,-5,-0.41,-0.25,-0.01,70.19,10.19,-19.59
8,-1,-5,-0.32,-0.25,-0.03,58.84,8.91,-20.81
8,0,-5,-0.3,-0.25,-0.06,51.51,3.66,-23.01
8,0,-5,-0.23,-0.27,-0.11,45.96,1.89,-23.07
8,0,-4,-0.23,-0.27,-0.11,45.96,1.89,-23.07
8,0,-4,-0.16,-0.29,-0.14,41.81,6.47,-22.89
8,0,-3,-0.15,-0.27,-0.18,37.66,11.23,-23.25
8,0,-3,-0.11,-0.25,-0.16,34,15.75,-22.71
8,0,-3,-0.06,-0.25,-0.15,30.64,17.21,-22.22
8,0,-3,-0.06,-0.25,-0.15,27.28,13.37,-21.85
8,0,-2,-0.06,-0.25,-0.12,27.28,13.37,-21.85
8,0,-2,-0.05,-0.24,-0.06,24.23,10.74,-21.06
8,0,-2,-0.04,-0.22,-0.02,19.47,12.08,-20.39
8,0,-2,-0.04,-0.19,0,13.49,13.67,-19.53
9,0,-2,-0.06,-0.18,0.05,7.2,15.99,-18.92
9,0,-2,-0.06,-0.18,0.05,7.2,15.99,-18.92
9,0,-2,-0.12,-0.2,0.1,0.61,18.43,-19.17
10,0,-2,-0.3,-0.25,0.12,-10.74,18.13,-20.45
10,0,-2,-0.94,-0.54,0.06,-26.12,10.19,-22.64
10,0,-2,-3.26,-1.75,-0.85,-48.58,-7.63,-24.9
10,0,-2,-3.26,-1.75,-0.85,-48.58,-7.63,-24.9
10,0,-2,-3.49,-1.5,-0.97,-101.32,-1.95,-18.31
10,0,-2,-1.74,-0.18,0.6,-190.67,-36.99,-19.71
10,0,-2,-3.75,0.98,2.81,-176.64,-230.29,-15.75
10,0,-2,-3.73,0.65,0.68,-123.54,-153.63,-35.46
10,0,-2,-3.73,0.65,0.68,-105.65,63.29,-55.24
10,0,-2,-2.16,0.61,0.05,-105.65,63.29,-55.24
10,0,-2,-1.63,0.51,-0.1,-97.9,63.05,-46.51
10,0,-2,-1.57,0.39,-0.08,-69.34,22.58,-26.79
10,0,-1,-1.56,0.03,0.03,-42.42,23.01,-12.39
10,0,-1,-1.56,0.03,0.03,-38.51,33.02,-4.7
10,0,-1,-1.48,-0.19,-0.13,-38.51,33.02,-4.7
10,0,-1,-1.42,-0.28,-0.17,-42.54,29.6,1.59
10,0,-1,-1.56,-0.2,-0.04,-48.1,11.66,8.48
10,0,-1,-1.57,-0.07,0.05,-54.75,-6.23,13.85
10,0,-1,-1.57,-0.07,0.05,-60.97,-7.69,16.85
10,0,-1,-1.61,0.02,0.11,-60.97,-7.69,16.85
10,0,-1,-1.47,0.03,0.08,-76.48,-5.74,18.25
9,0,-1,-1.42,0.12,0.04,-88.26,-1.59,21.85
9,0,-1,-1.33,0.21,0,-77.88,4.58,27.71
9,0,-1,-1.33,0.21,0,-55.79,11.54,32.53
9,0,-1,-1.2,0.09,0.04,-55.79,11.54,32.53
9,0,-1,-1.04,-0.05,0.08,-44.37,18.13,33.81
9,-1,-1,-0.85,-0.13,0.05,-44.13,25.27,34.67
9,-1,-1,-0.82,-0.13,0.14,-43.76,28.26,36.5
9,-1,-1,-0.82,-0.13,0.14,-44.68,29.05,35.52
9,-1,-1,-0.7,-0.1,0.2,-44.68,29.05,35.52
9,-1,-1,-0.58,-0.02,0.2,-46.75,29.66,34.67
9,-2,-1,-0.47,0.02,0.21,-50.78,28.93,34.42
8,-2,-1,-0.37,0.06,0.21,-56.03,28.44,32.41
8,-2,-1,-0.37,0.06,0.21,-60.42,27.53,30.21
8,-2,-1,-0.32,0.1,0.18,-60.42,27.53,30.21
8,-2,-1,-0.27,0.14,0.19,-64.88,30.76,27.47
8,-2,-1,-0.25,0.17,0.19,-69.03,36.68,23.56
8,-2,-1,-0.27,0.13,0.17,-73.67,43.21,19.23
8,-2,-1,-0.27,0.13,0.17,-79.65,54.69,14.04
8,-2,-1,-0.28,0.1,0.16,-79.65,54.69,14.04
8,-2,-1,-0.26,0.01,0.1,-86.43,65.06,10.25
8,-2,-1,-0.22,-0.06,0.03,-88.87,66.53,9.95
8,-2,-1,-0.15,-0.09,-0.03,-82.28,62.56,14.4
8,-2,-1,-0.15,-0.09,-0.03,-68.54,59.02,21.55
8,-2,-1,-0.11,-0.13,-0.06,-68.54,59.02,21.55
8,-2,0,-0.1,-0.13,-0.05,-57.01,58.47,27.4
8,-2,0,-0.09,-0.11,-0.04,-52.49,56.52,30.27
8,-2,0,-0.08,-0.11,-0.04,-52.73,53.47,30.21
8,-2,0,-0.09,-0.14,-0.06,-54.14,51.33,28.44
8,-2,0,-0.09,-0.14,-0.06,-54.14,51.33,28.44
8,-2,1,-0.33,-0.24,-0.13,-50.78,51.15,25.94
8,-2,2,-1.39,-0.72,-0.55,-41.63,51.15,18.37
8,-2,2,-1.99,-0.69,-1.27,-25.63,63.54,10.5
8,-2,2,-1.3,0,-1.12,-3.66,75.13,26.18
8,-1,2,-1.3,0,-1.12,-3.66,75.13,26.18
8,-1,2,-0.75,0.51,-0.68,53.22,-37.96,40.89
8,-1,2,-1.85,0.82,0.33,127.44,-263.06,47.73
8,-1,2,-3.15,0.61,2.34,241.33,-374.51,49.13
8,-1,2,-3.15,0.61,2.34,284.67,-282.96,29.66
8,-1,2,-3.67,0.04,3.48,284.67,-282.96,29.66
8,-1,2,-2.55,-0.04,1.67,160.4,-46.45,6.77
8,-1,2,-1.89,0.12,0.21,53.83,71.11,0.18
8,-1,2,-1.46,0.15,-0.48,25.27,68.73,1.59
8,-1,2,-1.46,0.15,-0.48,25.27,68.73,1.59
8,-1,2,-1.26,-0.06,-0.5,59.02,48.1,5.98
8,-1,2,-1.24,-0.26,-0.2,86.43,24.9,10.5
8,-1,2,-1.18,-0.41,-0.05,95.34,7.08,8.3
8,-1,2,-1.14,-0.54,0.06,92.59,-2.32,4.15
8,-1,2,-1.14,-0.54,0.06,92.59,-2.32,4.15
8,-1,2,-1.12,-0.49,0.06,83.01,-5.49,0.85
8,-1,2,-1.07,-0.41,0.01,77.33,-5.19,-2.32
8,-1,2,-1.02,-0.34,-0.07,76.72,-6.96,-6.29
8,-1,2,-1.01,-0.26,-0.03,78.37,-11.78,-11.78
8,-1,2,-1.01,-0.26,-0.03,78.37,-11.78,-11.78
8,-1,2,-0.96,-0.24,0.02,78.74,-17.7,-16.78
8,-1,2,-0.98,-0.23,0.03,77.88,-17.7,-19.78
8,-1,2,-0.76,-0.21,0.02,76.17,-7.32,-21.67
9,-1,2,-0.7,-0.2,-0.03,76.35,3.66,-21.97
9,-1,2,-0.7,-0.2,-0.03,76.29,6.84,-20.08
9,0,2,-0.63,-0.26,0.01,76.29,6.84,-20.08
10,-1,2,-0.53,-0.22,0.03,71.47,9.28,-19.65
10,-1,2,-0.46,-0.24,0.03,62.62,11.17,-20.57
10,-1,1,-0.38,-0.25,0.07,54.14,8.85,-20.75
11,-1,1,-0.38,-0.25,0.07,54.14,8.85,-20.75
11,-1,1,-0.3,-0.21,0.08,44.25,7.02,-22.22
11,-1,1,-0.23,-0.2,0.06,34.97,3.23,-23.44
11,-1,1,-0.17,-0.18,-0.01,24.84,1.95,-24.72
11,-1,1,-0.16,-0.19,-0.05,19.04,5.92,-25.39
11,-1,1,-0.16,-0.19,-0.05,15.14,11.05,-26.43
11,-1,1,-0.14,-0.21,-0.08,15.14,11.05,-26.43
11,-1,1,-0.11,-0.22,-0.09,8.61,14.95,-27.71
11,-1,1,-0.1,-0.21,-0.09,2.93,16.85,-28.69
12,-1,1,-0.08,-0.2,-0.09,-0.73,18.43,-29.11
12,-1,1,-0.08,-0.2,-0.09,-2.38,20.69,-29.11
12,-1,1,-0.09,-0.18,-0.05,-2.38,20.69,-29.11
12,-1,1,-0.08,-0.19,-0.01,-3.6,23.13,-28.81
12,-1,1,-0.09,-0.2,0.02,-7.2,24.41,-28.75
13,-1,1,-0.14,-0.21,0.05,-15.56,25.09,-29.36
13,-1,1,-0.43,-0.31,0.08,-26.73,18.19,-30.76
13,-1,1,-0.43,-0.31,0.08,-26.73,18.19,-30.76
13,-1,1,-1.33,-0.55,-0.18,-44.98,-1.16,-33.81
13,-1,1,-2.75,-0.96,-0.88,-70.13,-22.58,-39.98
13,-1,1,-2.48,-0.5,-0.55,-104.25,-59.45,-37.66
13,-1,1,-3.17,0.06,1.85,-118.41,-176.15,-27.4
13,-1,1,-3.17,0.06,1.85,-66.59,-198.3,-33.69
13,-1,1,-3.8,0.19,2.13,-66.59,-198.3,-33.69
13,-1,1,-2.62,0.33,0.41,-62.81,3.48,-59.14
13,-1,1,-2.12,0.47,-0.05,-95.4,34.61,-62.38
13,-1,1,-1.7,0.56,0.24,-80.63,6.16,-45.96
13,-1,1,-1.6,0.34,0.32,-60.18,14.04,-27.83
13,-1,1,-1.6,0.34,0.32,-60.18,14.04,-27.83
13,-1,1,-1.49,0.2,0.16,-60.55,26.73,-19.78
13,-1,1,-1.43,-0.08,-0.14,-68.6,26.37,-16.17
13,-1,1,-1.35,-0.29,-0.15,-69.09,17.76,-8.3
13,-1,1,-1.36,-0.25,-0.09,-63.11,2.93,2.87
13,-1,2,-1.36,-0.25,-0.09,-63.11,2.93,2.87
13,-1,2,-1.43,-0.05,-0.04,-67.38,-13.43,8.36
13,-1,2,-1.52,0.21,0.01,-73.18,-24.17,12.51
13,-1,2,-1.5,0.23,0.03,-71.17,-20.51,16.24
13,-1,2,-1.42,0.14,0.08,-62.26,-14.95,20.08
13,-1,2,-1.42,0.14,0.08,-62.26,-14.95,20.08
12,-1,2,-1.42,0.02,0.12,-51.88,-9.83,24.54
12,-1,2,-1.34,0.07,0.17,-43.21,-3.66,29.11
12,-1,2,-1.18,-0.02,0.16,-31.62,12.63,31.92
12,-1,2,-0.96,-0.19,0.13,-17.94,28.63,34.48
12,-1,2,-0.96,-0.19,0.13,-17.94,28.63,34.48
12,-2,2,-0.82,-0.3,0.14,-10.5,32.53,36.07
12,-2,2,-0.7,-0.26,0.15,-18.98,28.69,37.84
12,-2,2,-0.49,-0.18,0.13,-37.35,22.83,35.83
12,-2,2,-0.49,-0.18,0.13,-52.12,23.32,35.71
12,-2,2,-0.43,-0.12,0.14,-52.12,23.32,35.71
12,-2,2,-0.35,0,0.15,-54.87,28.93,36.8
12,-3,2,-0.28,0.07,0.18,-57.25,32.65,36.5
12,-3,2,-0.27,0.06,0.19,-66.41,32.35,34.61
12,-3,2,-0.27,0.06,0.19,-66.41,32.35,34.61
12,-3,2,-0.31,0.11,0.19,-78.31,32.59,31.25
12,-3,2,-0.32,0.15,0.18,-88.38,38.15,25.39
12,-3,2,-0.34,0.16,0.13,-94.79,50.6,18.74
12,-3,2,-0.32,0.1,0.07,-96.56,66.71,13.12
12,-3,2,-0.32,0.1,0.07,-96.56,66.71,13.12
12,-3,2,-0.27,0.02,0.02,-94.85,79.65,10.56
11,-3,2,-0.22,-0.02,-0.07,-89.42,84.96,12.33
11,-3,3,-0.13,-0.05,-0.1,-74.34,85.39,17.46
11,-3,3,-0.13,-0.05,-0.1,-52.61,79.59,24.35
11,-3,3,-0.06,-0.06,-0.1,-52.61,79.59,24.35
12,-3,3,-0.03,-0.04,-0.08,-35.1,68.36,30.4
12,-3,4,-0.06,-0.04,-0.06,-25.33,54.93,34
12,-3,4,-0.07,-0.04,-0.06,-23.25,43.88,34.24
12,-3,4,-0.07,-0.04,-0.06,-25.33,40.16,32.23
12,-3,5,-0.06,-0.04,-0.07,-25.33,40.16,32.23
12,-3,6,-0.04,-0.06,-0.08,-27.59,42.91,29.85
12,-3,9,-0.07,-0.09,-0.09,-30.27,45.23,27.83
12,-3,10,-0.55,-0.16,-0.21,-34.48,41.08,25.76
12,-2,12,-2.74,-0.61,-1.39,-31.62,22.83,15.93
12,-2,14,-2.74,-0.61,-1.39,-31.62,22.83,15.93
12,-2,14,-2.52,-0.19,-1.67,20.57,-2.87,9.28
12,-2,14,-1.38,0.25,-0.71,101.01,-93.38,41.26
12,-2,14,-2.34,0.2,1.9,238.59,-356.26,58.65
12,-2,14,-4,-0.73,4,354.55,-485.47,49.07
12,-2,14,-4,-0.73,4,354.55,-485.47,49.07
12,-2,14,-2.93,-0.38,2.94,216.31,-192.87,17.7
12,-2,14,-1.88,0.55,0.75,35.77,54.26,-1.59
12,-2,14,-1.8,0.62,-0.22,-12.88,50.35,11.17
12,-2,14,-1.21,0.34,-0.39,21.42,46.08,9.34
12,-2,14,-1.21,0.34,-0.39,21.42,46.08,9.34
11,-2,14,-1.08,-0.01,-0.32,50.96,23.32,13.43
11,-2,14,-0.97,-0.3,-0.26,63.35,3.66,12.82
11,-2,14,-0.95,-0.49,-0.22,69.21,-7.2,10.38
11,-2,14,-0.95,-0.49,-0.22,69.4,-12.45,8.97
11,-2,14,-0.88,-0.57,-0.08,69.4,-12.45,8.97
11,-2,14,-0.93,-0.48,-0.07,64.82,-23.5,9.03
11,-2,14,-1,-0.35,-0.1,62.01,-32.96,6.59
12,-2,14,-1.05,-0.26,-0.04,67.93,-37.35,1.59
12,-2,14,-1.05,-0.26,-0.04,72.81,-44.01,-5.62
12,-2,14,-1.07,-0.16,0.05,72.81,-44.01,-5.62
12,-2,14,-1.06,-0.22,0.17,72.88,-47.97,-15.14
12,-2,14,-0.96,-0.21,0.18,62.5,-47.42,-23.44
12,-2,14,-0.9,-0.19,0.12,56.03,-38.76,-27.16
12,-2,14,-0.82,-0.17,0,57.68,-28.26,-25.02
12,-2,14,-0.82,-0.17,0,57.68,-28.26,-25.02
11,-2,14,-0.75,-0.13,0,64.64,-20.02,-22.16
11,-2,14,-0.72,-0.15,0.02,68.18,-16.91,-21.3
11,-2,14,-0.62,-0.13,0.01,67.32,-15.32,-19.23
12,-2,14,-0.47,-0.17,0.01,67.08,-10.86,-17.64
13,-2,14,-0.47,-0.17,0.01,67.08,-10.86,-17.64
13,-2,14,-0.42,-0.2,0,65.12,-6.47,-17.82
13,-2,14,-0.32,-0.24,-0.02,58.29,-5.62,-19.41
13,-2,14,-0.25,-0.27,-0.1,48.1,-4.94,-21.91
13,-1,14,-0.19,-0.25,-0.15,42.18,-3.91,-23.99
13,-1,14,-0.19,-0.25,-0.15,37.9,-3.48,-26.79
13,-1,14,-0.17,-0.21,-0.2,37.9,-3.48,-26.79
13,-1,14,-0.12,-0.24,-0.22,34.36,-1.65,-30.64
13,-1,14,-0.11,-0.26,-0.19,33.57,0.12,-33.45
13,-1,14,-0.13,-0.28,-0.18,29.85,2.26,-34.85
13,-1,14,-0.1,-0.33,-0.12,27.71,5.37,-35.16
13,-1,14,-0.1,-0.33,-0.12,27.71,5.37,-35.16
13,-1,14,-0.1,-0.33,-0.09,23.01,5.43,-35.22
14,-1,14,-0.13,-0.34,-0.08,14.34,6.53,-34.73
14,-1,14,-0.22,-0.36,-0.09,8.48,10.31,-33.81
14,-1,14,-0.62,-0.5,-0.25,1.71,16.05,-33.94
14,-1,14,-0.62,-0.5,-0.25,-1.46,21.12,-37.66
14,-1,14,-1.29,-0.81,-0.71,-1.46,21.12,-37.66
14,-1,14,-2.05,-0.9,-1.15,-6.29,25.02,-37.17
14,-1,15,-2.21,-0.54,-0.58,-24.66,-16.17,-25.45
14,-1,15,-2.38,-0.15,0.84,-36.01,-160.71,-17.94
14,-1,15,-3.97,0.61,2.51,-50.54,-238.34,-17.09
14,-1,15,-3.97,0.61,2.51,-77.03,-70.92,-41.69
14,-1,15,-3.26,0.7,0.65,-77.03,-70.92,-41.69
14,-1,15,-2.34,0.57,-0.12,-78.25,64.39,-63.29
14,-1,15,-1.9,0.48,-0.26,-56.52,45.72,-52.06
14,-1,15,-1.68,0.17,0.07,-14.77,35.16,-34.97
14,-1,15,-1.68,0.17,0.07,3.42,35.28,-22.22
14,-1,15,-1.63,-0.08,0.14,3.42,35.28,-22.22
14,-1,15,-1.6,-0.31,-0.08,-7.2,35.16,-15.69
14,-1,15,-1.48,-0.42,-0.16,-18.55,32.71,-12.27
14,-1,15,-1.43,-0.26,-0.12,-26.49,27.89,-6.47
14,-1,15,-1.43,-0.26,-0.12,-37.84,19.41,-3.23
14,-1,15,-1.41,-0.09,-0.11,-37.84,19.41,-3.23
14,-1,15,-1.38,-0.06,-0.02,-41.44,11.47,-2.75
14,0,15,-1.39,-0.15,0.07,-40.16,4.88,-3.05
14,-1,15,-1.4,-0.08,0.14,-41.93,6.65,-2.08
14,-1,15,-1.34,-0.02,0.16,-41.32,13.85,0.67
13,-1,15,-1.34,-0.02,0.16,-41.32,13.85,0.67
13,-1,15,-1.21,0.02,0.16,-36.38,24.9,4.46
13,-1,15,-1.08,0,0.18,-26.79,36.99,7.51
13,-1,14,-0.99,-0.01,0.16,-24.05,46.02,9.64
12,-1,14,-0.9,0.01,0.11,-30.52,49.68,11.41
11,-1,14,-0.9,0.01,0.11,-30.52,49.68,11.41
11,-1,15,-0.82,0.03,0.09,-37.9,48.34,12.76
10,-2,15,-0.71,0.03,0.08,-42.11,46.33,13.98
9,-3,15,-0.62,0.06,0.09,-42.11,45.17,15.44
8,-4,15,-0.62,0.06,0.09,-40.41,46.33,16.05
7,-5,15,-0.53,0.06,0.11,-40.41,46.33,16.05
7,-5,15,-0.44,0.05,0.11,-40.28,51.88,15.38
7,-5,15,-0.36,0.09,0.13,-40.53,57.74,15.2
6,-5,15,-0.23,0.09,0.13,-40.89,58.47,14.83
6,-5,15,-0.23,0.09,0.13,-40.89,58.47,14.83
6,-6,16,-0.23,0.05,0.11,-42.85,54.69,15.44
6,-6,17,-0.25,0.07,0.08,-44.01,49.26,15.93
6,-6,17,-0.26,0.1,0.05,-49.13,45.65,14.77
6,-6,17,-0.26,0.1,0.05,-51.57,47.97,12.45
5,-6,17,-0.27,0.1,0.03,-51.57,47.97,12.45
5,-6,17,-0.26,0.11,0.01,-49.68,55.05,9.7
5,-6,17,-0.22,0.1,-0.01,-43.52,63.05,7.63
4,-6,17,-0.2,0.08,-0.03,-34.67,68.42,6.1
3,-6,17,-0.2,0.08,-0.03,-34.67,68.42,6.1
3,-6,17,-0.19,0.05,-0.05,-25.57,68.18,5.25
2,-6,17,-0.21,0.02,-0.1,-17.46,62.99,5.68
2,-6,17,-0.17,0,-0.11,-8.48,56.7,7.69
2,-5,17,-0.13,-0.01,-0.13,1.1,52.19,10.44
2,-5,17,-0.13,-0.01,-0.13,1.1,52.19,10.44
2,-5,17,-0.12,-0.01,-0.14,10.86,47.3,13.37
2,-5,17,-0.15,-0.02,-0.17,20.08,41.2,15.38
2,-5,17,-0.29,-0.08,-0.26,29.17,34.06,15.56
2,-5,17,-0.68,-0.23,-0.48,42.3,27.22,12.82
2,-5,17,-0.68,-0.23,-0.48,42.3,27.22,12.82
2,-5,17,-1.41,-0.55,-0.84,66.35,21.48,8.61
2,-5,18,-1.86,-0.57,-1.24,93.44,9.52,10.86
2,-5,18,-1.49,-0.46,-1.16,114.56,-35.64,21.79
3,-5,18,-0.93,-0.38,-0.11,132.63,-161.56,25.94
3,-5,18,-0.93,-0.38,-0.11,132.63,-161.56,25.94
3,-5,18,-2.49,0.01,2.03,151.92,-372.68,28.81
3,-5,18,-4,-0.11,4,208.19,-456.79,28.5
3,-5,18,-3.06,-0.55,2.66,180.24,-169.98,1.34
3,-5,18,-1.76,0.01,0.48,23.68,94.12,-19.29
3,-5,18,-1.76,0.01,0.48,23.68,94.12,-19.29
3,-5,18,-1.49,0.3,-0.38,-19.1,101.07,-7.75
3,-5,18,-1.21,0.26,-0.44,11.54,74.1,-0.43
3,-5,18,-1.11,-0.04,-0.18,52.61,48.16,7.14
3,-5,18,-1.08,-0.23,-0.05,60.85,24.11,8.79
3,-5,18,-1.08,-0.23,-0.05,60.85,24.11,8.79
3,-5,18,-1.03,-0.26,-0.01,57.01,7.14,8.73
3,-5,18,-1.08,-0.15,-0.02,55.85,-2.32,10.38
3,-5,18,-1.09,-0.01,-0.04,61.22,-7.32,11.35
3,-5,18,-1.14,0.08,-0.1,69.76,-13.12,9.64
3,-5,18,-1.14,0.08,-0.1,69.76,-13.12,9.64
3,-4,18,-1.21,0.12,-0.12,78.31,-21.79,4.58
3,-4,18,-1.22,0.05,-0.07,88.5,-28.63,-1.71
3,-4,18,-1.18,-0.1,-0.01,96.62,-31.8,-7.63
3,-4,17,-1.18,-0.22,0.02,98.33,-31.07,-12.57
3,-3,17,-1.18,-0.22,0.02,98.33,-31.07,-12.57
3,-3,17,-1.11,-0.19,0.01,96.37,-28.75,-16.6
3,-3,17,-1.05,-0.15,-0.07,91.55,-23.13,-20.69
3,-3,17,-0.97,-0.23,-0.18,91.8,-18.07,-23.01
3,-2,17,-0.92,-0.23,-0.13,99.85,-15.75,-21.97
3,-2,17,-0.92,-0.23,-0.13,106.99,-12.76,-20.81
3,-2,17,-0.82,-0.28,-0.12,106.99,-12.76,-20.81
3,-2,17,-0.77,-0.3,-0.14,107.3,-12.57,-19.47
3,-2,18,-0.78,-0.32,-0.09,108.09,-16.91,-17.64
4,-2,17,-0.77,-0.24,-0.02,106.02,-20.87,-16.72
4,-2,17,-0.7,-0.24,-0.02,103.15,-16.11,-16.85
4,-2,17,-0.7,-0.24,-0.02,103.15,-16.11,-16.85
4,-1,17,-0.62,-0.25,-0.02,100.4,-9.46,-19.35
5,-1,17,-0.54,-0.27,-0.03,96.74,-6.1,-21.3
5,-1,17,-0.46,-0.3,-0.05,90.94,-5.19,-23.5
5,-1,17,-0.45,-0.3,-0.09,82.09,-6.1,-25.76
6,-1,17,-0.45,-0.3,-0.09,74.16,-5.07,-27.65
6,-1,17,-0.39,-0.35,-0.09,74.16,-5.07,-27.65
6,-1,17,-0.38,-0.32,-0.08,68.54,-2.08,-29.17
6,-1,17,-0.35,-0.33,-0.06,62.99,-0.79,-30.58
6,-1,17,-0.34,-0.32,-0.03,56.76,3.3,-31.8
6,0,16,-0.32,-0.33,0,51.27,13.92,-32.84
6,0,16,-0.32,-0.33,0,51.27,13.92,-32.84
7,0,16,-0.31,-0.31,0.03,44.19,24.11,-33.75
7,0,15,-0.29,-0.29,0.04,33.94,32.65,-34.91
8,0,15,-0.3,-0.26,0.04,22.83,37.84,-34.91
9,-1,15,-0.33,-0.24,0.03,13,38.51,-34.79
10,-1,15,-0.33,-0.24,0.03,13,38.51,-34.79
10,-1,15,-0.42,-0.26,0.01,6.47,34.55,-33.51
10,-1,14,-0.68,-0.26,-0.05,-0.43,27.83,-31.56
10,-1,14,-1.03,-0.25,-0.2,-9.7,19.84,-31.86
10,0,15,-1.56,-0.11,-0.58,-20.26,11.35,-33.63
10,0,15,-1.56,-0.11,-0.58,-20.26,11.35,-33.63
10,0,15,-1.96,0.24,-0.6,-16.54,-7.51,-34.06
10,0,15,-2.05,0.64,-0.16,5.86,-61.34,-30.52
10,0,15,-2.61,0.77,0.42,26.67,-125.79,-24.23
10,0,15,-2.64,0.65,1.2,50.84,-125.18,-23.74
10,0,15,-2.64,0.65,1.2,50.84,-125.18,-23.74
10,0,15,-2.34,0.24,0.97,65.67,-43.03,-38.15
10,0,15,-1.92,0.07,0.14,44.62,25.82,-47.97
10,0,15,-1.67,-0.06,-0.07,41.5,41.5,-42.05
10,0,15,-1.67,-0.06,-0.07,54.99,41.87,-30.09
10,0,15,-1.5,-0.23,0.01,54.99,41.87,-30.09
10,0,15,-1.44,-0.44,0.11,60.85,31.37,-20.63
10,0,15,-1.48,-0.53,0.06,52.19,20.45,-13.73
10,0,15,-1.47,-0.46,0.04,35.28,15.81,-8.97
10,0,15,-1.47,-0.46,0.04,35.28,15.81,-8.97
10,0,15,-1.45,-0.29,0.01,16.48,10.5,-6.23
10,0,15,-1.44,-0.19,0,-3.48,-0.85,-5.86
10,0,15,-1.44,-0.05,0.05,-12.27,-8.85,-4.15
10,-1,15,-1.43,0.08,0.06,-13.92,-11.17,-2.87
10,-1,15,-1.43,0.08,0.06,-13.92,-11.17,-2.87
10,-1,15,-1.36,0.09,0.05,-9.7,-7.45,-2.56
10,-1,15,-1.33,0.11,0.03,-1.65,-3.6,-1.77
10,-1,15,-1.2,0.07,0.05,8.79,-0.37,0.12
10,-2,15,-1.16,0.01,0.06,12.51,-1.65,1.16
10,-2,15,-1.16,0.01,0.06,12.51,-1.65,1.16
10,-2,15,-1.08,0.04,0.06,6.71,-2.32,2.38
9,-2,15,-0.98,0.05,0.04,0.12,-0.55,3.72
8,-2,15,-0.92,0.08,0,-1.22,0.73,5.49
6,-2,15,-0.85,0.03,0.01,0.79,4.33,6.84
5,-2,15,-0.85,0.03,0.01,0.79,4.33,6.84
4,-2,15,-0.79,-0.07,0.06,2.87,8.36,8.36
4,-2,15,-0.72,-0.1,0.07,0.55,11.96,9.4
4,-2,15,-0.65,-0.07,0.07,-4.39,15.2,10.07
4,-2,15,-0.65,-0.07,0.07,-4.39,15.2,10.07
4,-2,15,-0.6,0,0.08,-6.53,16.24,11.41
4,-2,15,-0.57,0.01,0.1,-7.57,17.15,11.78
4,-2,15,-0.52,0.04,0.14,-12.63,19.04,10.74
4,-2,15,-0.5,0.06,0.12,-18.13,20.14,10.25
4,-2,15,-0.5,0.06,0.12,-18.13,20.14,10.25
4,-2,15,-0.48,0.1,0.13,-20.32,21.91,9.89
4,-2,15,-0.47,0.13,0.13,-19.29,23.74,9.34
4,-2,15,-0.43,0.11,0.1,-18.74,26.12,8.91
4,-2,15,-0.43,0.11,0.1,-18.31,28.81,9.64
4,-2,15,-0.4,0.13,0.08,-18.31,28.81,9.64
4,-2,15,-0.37,0.15,0.03,-18.68,34.18,9.7
3,-2,15,-0.33,0.14,-0.01,-15.26,42.36,10.01
3,-2,15,-0.27,0.13,-0.05,-8.18,50.84,10.74
3,-2,15,-0.27,0.13,-0.05,-8.18,50.84,10.74
3,-2,15,-0.25,0.11,-0.08,1.04,55.6,12.08
3,-2,15,-0.22,0.08,-0.13,9.52,57.56,13.12
3,-2,15,-0.18,0.05,-0.16,17.64,56.76,13.98
2,-2,15,-0.2,0,-0.19,24.9,53.41,14.95
2,-2,15,-0.2,0,-0.19,24.9,53.41,14.95
2,-2,15,-0.33,-0.05,-0.29,30.82,47.55,15.5
2,-2,15,-0.53,-0.2,-0.46,38.64,40.95,15.44
2,-2,15,-0.99,-0.41,-0.74,49.44,35.28,14.59
2,-2,15,-0.99,-0.41,-0.74,58.17,30.7,17.15
2,-2,15,-1.52,-0.49,-1.14,58.17,30.7,17.15
2,-2,15,-1.51,-0.22,-1.3,68.42,10.74,23.13
2,-2,15,-1.19,-0.1,-0.79,92.04,-64.76,28.69
2,-2,15,-1.67,0.02,0.95,124.57,-210.88,33.33
2,-2,15,-1.67,0.02,0.95,124.57,-210.88,33.33
2,-2,15,-3.68,0.37,3.42,147.46,-366.64,31.37
2,-2,15,-3.61,-1.15,3.58,195.43,-254.52,10.19
3,-2,15,-2.05,-0.54,1.03,54.38,33.63,-21.85
3,-2,15,-1.55,0.06,-0.4,-12.45,84.84,-22.22
3,-2,15,-1.55,0.06,-0.4,-12.45,84.84,-22.22
2,-2,15,-1.3,0.3,-0.62,25.94,60.3,-8
2,-2,15,-1.3,0.13,-0.11,81.18,16.17,3.3
2,-2,15,-1.33,0.01,0.18,91.74,-8.61,11.66
2,-2,15,-1.28,-0.01,0.17,85.21,-12.94,15.01
2,-2,15,-1.28,-0.01,0.17,85.21,-12.94,15.01
2,-2,15,-1.28,0.07,0.1,78.06,-13.79,16.91
2,-2,15,-1.31,0.13,-0.04,72.51,-14.83,16.91
2,-2,15,-1.38,0.18,-0.13,76.35,-14.59,16.11
2,-2,15,-1.38,0.18,-0.13,90.76,-9.83,15.99
2,-2,15,-1.37,0.13,-0.11,90.76,-9.83,15.99
1,-2,15,-1.25,0.09,-0.08,102.29,-8.91,13.79
1,-2,14,-1.2,0.05,-0.21,107.36,-11.05,10.19
1,-2,14,-1.15,-0.04,-0.22,118.65,-19.47,7.57
1,-2,14,-1.1,-0.15,-0.18,130.49,-24.41,5.31
1,-2,14,-1.1,-0.15,-0.18,130.49,-24.41,5.31
1,-1,14,-1.06,-0.2,-0.15,135.13,-26.31,2.56
1,-1,14,-1,-0.26,-0.13,136.72,-27.71,0.85
1,-1,14,-0.96,-0.25,-0.1,135.19,-26.18,-0.61
1,-1,14,-0.85,-0.26,-0.05,131.77,-22.83,-1.71
1,-1,14,-0.85,-0.26,-0.05,131.77,-22.83,-1.71
1,0,14,-0.82,-0.26,-0.08,125.79,-19.1,-2.93
1,0,14,-0.77,-0.26,-0.12,120.12,-16.54,-3.36
2,0,14,-0.74,-0.25,-0.09,118.77,-16.05,-3.72
2,0,15,-0.7,-0.25,-0.09,115.54,-16.6,-4.64
2,1,15,-0.7,-0.25,-0.09,113.71,-14.89,-5.68
3,1,15,-0.65,-0.27,-0.07,113.71,-14.89,-5.68
3,2,15,-0.59,-0.27,-0.05,110.96,-13.67,-6.65
4,2,14,-0.55,-0.29,-0.04,106.69,-13.24,-7.32
4,2,14,-0.51,-0.31,-0.05,101.26,-10.93,-9.03
4,2,14,-0.51,-0.31,-0.05,93.14,-10.07,-10.5
4,2,14,-0.47,-0.32,0.05,93.14,-10.07,-10.5
4,2,14,-0.45,-0.28,-0.01,80.69,-7.63,-9.95
5,2,14,-0.41,-0.27,-0.02,71.17,-4.33,-10.99
5,2,14,-0.38,-0.26,-0.03,64.94,-1.95,-11.72
5,2,13,-0.37,-0.24,-0.04,61.58,1.83,-12.76
5,2,13,-0.37,-0.24,-0.04,61.58,1.83,-12.76
6,2,13,-0.37,-0.25,-0.03,57.8,2.99,-14.22
7,2,13,-0.4,-0.19,-0.02,52.06,6.23,-15.38
8,2,12,-0.44,-0.14,-0.01,47.97,12.51,-16.97
8,2,12,-0.44,-0.14,-0.01,43.76,18.68,-18.25
8,2,12,-0.41,-0.11,-0.01,43.76,18.68,-18.25
8,2,12,-0.4,-0.06,-0.02,41.14,24.35,-20.32
8,2,12,-0.39,-0.02,-0.02,38.51,25.09,-21.48
8,2,12,-0.4,-0.02,0.01,37.29,22.4,-22.46
8,2,12,-0.4,-0.02,0.01,37.29,22.4,-22.46
8,2,12,-0.43,0,0.04,34.61,17.03,-23.99
8,2,12,-0.57,-0.01,0.01,32.65,6.84,-24.78
8,2,12,-0.95,-0.04,-0.15,32.23,-1.77,-25.51
8,2,12,-1.62,-0.03,-0.42,34.42,-8.3,-26.67
8,2,12,-1.62,-0.03,-0.42,34.42,-8.3,-26.67
8,2,12,-2.13,0.06,-0.53,33.75,-23.13,-27.16
7,2,12,-2.14,0.26,-0.26,28.93,-53.47,-24.84
7,2,12,-2.28,0.54,0.36,39,-94.6,-18.31
7,2,12,-2.48,0.71,0.74,65.61,-101.14,-16.24
7,2,12,-2.48,0.71,0.74,65.61,-101.14,-16.24
7,2,12,-2.29,0.51,0.53,86.24,-36.32,-24.9
7,2,12,-1.92,0.26,-0.04,85.08,24.6,-33.33
7,2,12,-1.71,-0.01,-0.1,91.61,36.8,-30.7
7,2,12,-1.71,-0.01,-0.1,100.77,32.29,-21.55
7,2,12,-1.65,-0.22,0.03,100.77,32.29,-21.55
7,2,12,-1.66,-0.34,0.04,99.61,31.25,-14.28
7,2,12,-1.66,-0.49,-0.07,93.26,35.52,-7.81
7,2,12,-1.58,-0.42,-0.12,85.39,37.54,-1.95
7,2,12,-1.58,-0.42,-0.12,85.39,37.54,-1.95
7,2,12,-1.47,-0.31,-0.11,73.12,32.78,1.1
7,2,12,-1.37,-0.2,-0.06,60.12,23.32,1.95
7,2,12,-1.34,-0.1,-0.01,49.74,13.43,2.2
7,2,12,-1.31,-0.01,0.01,43.76,12.39,2.5
7,2,12,-1.31,-0.01,0.01,43.76,12.39,2.5
6,2,12,-1.29,0.04,-0.03,43.64,13.37,2.69
6,2,12,-1.23,0.07,-0.07,49.32,14.77,5.37
6,2,12,-1.17,0.04,-0.07,60.12,19.17,9.22
6,2,12,-1.17,0.04,-0.07,60.12,19.17,9.22
6,2,12,-1.14,0,-0.05,70.86,21.91,13.31
6,2,12,-1.09,-0.05,-0.01,77.64,21.48,17.03
6,2,12,-1.06,-0.07,0.01,78.06,20.75,19.47
6,2,12,-1.06,-0.07,0.01,71.29,23.38,20.14
6,2,12,-0.98,-0.12,-0.02,71.29,23.38,20.14
6,2,12,-0.98,-0.14,0,67.63,26.18,21.48
6,2,12,-0.94,-0.19,0.02,68.66,32.41,23.5
6,1,12,-0.88,-0.22,0.08,68.91,39.86,24.54
6,1,12,-0.88,-0.22,0.08,68.91,39.86,24.54
6,1,11,-0.8,-0.24,0.12,65,45.59,24.17
6,1,11,-0.73,-0.22,0.15,57.37,49.87,22.89
6,1,11,-0.66,-0.2,0.16,47.61,51.09,21.12
6,1,11,-0.66,-0.2,0.16,35.89,47.18,19.78
7,1,11,-0.61,-0.14,0.15,35.89,47.18,19.78
7,1,11,-0.57,-0.07,0.13,27.47,41.69,18.8
7,1,11,-0.53,0.02,0.11,24.29,39.43,17.52
7,1,11,-0.52,0.07,0.1,27.47,35.4,16.78
6,1,11,-0.52,0.07,0.1,27.47,35.4,16.78
6,0,11,-0.52,0.1,0.09,32.59,29.17,16.05
6,0,11,-0.52,0.12,0.05,32.41,28.32,14.71
6,0,11,-0.48,0.16,0.04,30.21,34.18,12.82
6,0,11,-0.48,0.16,0.04,30.21,34.18,12.82
6,0,11,-0.46,0.2,0,28.2,34.79,10.8
6,0,11,-0.43,0.22,-0.08,21.67,27.47,7.75
6,0,11,-0.44,0.24,-0.15,23.62,16.85,6.84
6,0,11,-0.44,0.24,-0.15,23.62,16.85,6.84
6,0,11,-0.44,0.24,-0.19,41.44,10.01,8.97
6,0,11,-0.44,0.22,-0.18,65.92,9.22,11.9
6,0,11,-0.4,0.17,-0.14,85.45,11.66,14.28
5,0,11,-0.4,0.17,-0.14,98.14,11.78,15.87
5,0,11,-0.34,0.08,-0.07,98.14,11.78,15.87
5,0,11,-0.3,0.02,-0.01,104.86,6.71,16.78
5,0,11,-0.28,0.01,0.05,106.2,0.12,17.03
5,0,11,-0.33,-0.02,0.08,106.51,-5.68,17.03
5,0,10,-0.33,-0.02,0.08,106.51,-5.68,17.03
5,0,10,-0.5,-0.11,0.03,105.83,-10.07,15.87
5,0,10,-0.81,-0.21,-0.14,106.87,-11.54,14.77
5,0,10,-1.18,-0.24,-0.41,116.76,-12.15,14.04
5,0,10,-1.18,-0.24,-0.41,142.52,-19.53,14.34
5,0,10,-1.45,-0.16,-0.46,142.52,-19.53,14.34
5,0,10,-1.63,-0.35,0.03,179.5,-54.2,15.08
5,0,10,-1.98,-0.7,0.88,205.87,-106.14,16.24
5,0,10,-2.58,-0.79,1.71,195.68,-127.2,12.88
5,0,10,-2.58,-0.79,1.71,195.68,-127.2,12.88
5,0,10,-2.63,-0.65,1.43,145.94,-73.85,1.46
6,0,10,-2.01,-0.39,0.55,82.58,24.23,-12.39
6,0,10,-1.58,-0.15,-0.07,56.76,68.42,-15.69
6,0,10,-1.44,0.01,-0.24,62.5,54.14,-10.62
6,0,10,-1.44,0.01,-0.24,62.5,54.14,-10.62
6,0,10,-1.41,0.05,-0.16,80.51,26.98,-5.31
6,0,10,-1.35,-0.04,-0.05,97.29,15.5,-2.01
6,0,10,-1.28,-0.15,0.05,105.29,13,-1.04
6,0,10,-1.28,-0.15,0.05,102.05,9.52,-1.89
6,0,10,-1.25,-0.21,0.02,102.05,9.52,-1.89
6,0,10,-1.21,-0.25,0,97.96,8.91,-2.93
6,0,10,-1.22,-0.22,-0.01,96.44,8.24,-4.09
6,0,10,-1.22,-0.23,-0.02,96.68,7.93,-6.59
6,0,10,-1.22,-0.23,-0.02,96.68,7.93,-6.59
6,0,10,-1.18,-0.26,-0.01,97.78,7.45,-10.44
6,0,10,-1.14,-0.2,-0.05,92.71,5.31,-15.14
6,0,10,-1.1,-0.25,-0.09,88.93,2.2,-18.49
6,1,10,-1.1,-0.22,-0.07,90.64,-1.95,-20.32
7,1,10,-1.1,-0.22,-0.07,90.64,-1.95,-20.32
8,1,10,-1.06,-0.23,-0.05,91.86,-4.09,-21.91
9,1,10,-1.01,-0.23,-0.02,89.54,-3.17,-23.99
10,1,10,-0.94,-0.27,-0.04,84.35,-0.18,-25.15
10,1,10,-0.9,-0.27,-0.05,82.52,2.38,-23.99
10,1,10,-0.9,-0.27,-0.05,82.52,2.38,-23.99
10,2,10,-0.87,-0.29,-0.08,84.78,4.03,-21.55
10,2,11,-0.84,-0.36,-0.13,86.91,4.7,-18.98
10,2,11,-0.81,-0.39,-0.16,91.67,5.07,-14.28
11,2,11,-0.77,-0.39,-0.11,97.96,6.35,-10.31
11,2,11,-0.77,-0.39,-0.11,97.96,6.35,-10.31
11,2,11,-0.72,-0.4,-0.06,101.07,8.42,-8.48
11,2,11,-0.68,-0.44,0,98.69,8.79,-8.42
11,2,11,-0.69,-0.46,0.06,92.71,7.2,-9.09
11,2,11,-0.71,-0.47,0.11,83.56,7.45,-10.31
11,2,11,-0.71,-0.47,0.11,83.56,7.45,-10.31
11,2,11,-0.74,-0.45,0.14,73.24,10.44,-11.41
11,2,11,-0.75,-0.44,0.14,62.38,14.77,-12.7
12,2,11,-0.76,-0.42,0.11,51.21,16.24,-13.79
12,2,11,-0.76,-0.42,0.11,41.81,15.38,-14.04
12,2,11,-0.77,-0.39,0.09,41.81,15.38,-14.04
13,2,11,-0.79,-0.33,0.07,35.22,15.99,-14.28
13,2,10,-0.81,-0.28,0.07,32.53,18.31,-15.14
13,2,9,-0.84,-0.24,0.08,31.98,19.84,-16.11
13,2,6,-0.84,-0.24,0.08,31.98,19.84,-16.11
13,1,4,-0.85,-0.22,0.09,32.1,20.26,-17.7
13,1,3,-0.84,-0.2,0.1,32.35,20.39,-20.2
13,1,2,-0.82,-0.18,0.08,31.49,19.59,-23.25
13,0,2,-0.82,-0.18,0.08,29.91,16.54,-25.94
13,0,1,-0.82,-0.15,0.07,29.91,16.54,-25.94
13,-1,1,-0.82,-0.15,0.05,29.17,11.9,-28.32
13,-1,1,-0.85,-0.07,0.02,28.75,6.04,-30.09
13,-1,1,-0.84,-0.07,0,31.43,2.01,-31.31
13,-1,0,-0.84,-0.07,0,31.43,2.01,-31.31
13,-1,0,-0.82,-0.09,0,35.95,0.98,-32.17
13,-1,0,-0.8,-0.13,0.02,40.28,0.37,-31.98
13,-1,0,-0.8,-0.16,0.04,40.95,-2.38,-31.62
13,-1,0,-0.82,-0.19,0.05,39.49,-6.04,-31.19
13,-1,0,-0.82,-0.19,0.05,39.49,-6.04,-31.19
13,-1,0,-0.88,-0.24,0.06,37.05,-9.09,-30.82
13,-2,0,-0.97,-0.23,0.05,32.9,-12.15,-30.15
13,-2,0,-1.05,-0.22,0.03,29.24,-14.4,-28.99
13,-2,0,-1.09,-0.14,0.05,26.49,-16.17,-27.83
12,-2,-1,-1.09,-0.14,0.05,26.49,-16.17,-27.83
12,-2,-1,-1.13,-0.09,0.09,28.38,-20.45,-25.45
12,-2,-1,-1.2,-0.01,0.14,32.59,-25.88,-23.07
12,-2,-1,-1.23,0.03,0.19,36.87,-31.86,-20.51
12,-2,-1,-1.26,0.1,0.25,36.8,-35.03,-19.41
12,-2,-1,-1.26,0.1,0.25,35.16,-32.35,-20.2
12,-2,-1,-1.31,0.16,0.29,35.16,-32.35,-20.2
12,-2,-1,-1.37,0.19,0.3,34.85,-25.15,-22.34
12,-2,-1,-1.42,0.16,0.25,35.1,-16.6,-24.48
12,-2,-1,-1.42,0.13,0.16,35.1,-10.62,-25.82
12,-3,-1,-1.42,0.13,0.16,38.45,-9.03,-25.7
11,-3,-1,-1.37,0.08,0.1,38.45,-9.03,-25.7
11,-3,-1,-1.38,0.09,0.09,42.11,-11.54,-24.96
10,-3,0,-1.41,0.06,0.18,46.33,-15.69,-24.05
9,-3,0,-1.48,0.05,0.35,52.67,-15.69,-22.89
9,-3,0,-1.46,0.02,0.39,55.05,-4.7,-21
9,-3,1,-1.46,0.02,0.39,55.05,-4.7,-21
8,-3,1,-1.38,-0.02,0.35,54.5,11.84,-19.41
8,-3,1,-1.29,-0.04,0.23,50.29,25.88,-17.76
8,-3,1,-1.22,0.01,0.1,45.29,30.88,-16.17
8,-3,1,-1.17,0.03,0.02,43.64,29.17,-14.22
7,-3,1,-1.17,0.03,0.02,43.64,29.17,-14.22
7,-3,1,-1.16,0.03,0.02,44.49,26.31,-11.6
6,-3,1,-1.13,-0.01,0.03,45.47,24.17,-7.75
5,-3,1,-1.07,-0.07,0.09,46.39,23.68,-4.33
5,-3,1,-1.07,-0.07,0.09,38.94,23.5,-2.44
5,-3,1,-1.04,-0.13,0.04,38.94,23.5,-2.44
5,-3,1,-0.98,-0.04,-0.02,30.82,23.68,-0.73
5,-3,1,-0.94,0,-0.06,31.86,23.5,1.46
5,-3,1,-0.91,-0.02,-0.05,33.45,22.52,2.44
5,-3,1,-0.91,-0.02,-0.05,33.45,22.52,2.44
5,-3,1,-0.93,0,-0.01,30.64,19.84,2.26
4,-3,1,-0.94,0.01,0.01,28.2,19.84,2.2
4,-3,1,-0.96,-0.01,0.04,27.89,22.09,1.89
4,-3,1,-0.96,-0.01,0.04,26.98,25.76,1.71
4,-3,1,-0.95,-0.06,0.07,26.98,25.76,1.71
4,-3,1,-0.96,-0.12,0.11,25.94,28.99,2.14
4,-3,1,-0.95,-0.17,0.13,24.96,32.84,3.78
4,-3,1,-0.95,-0.18,0.16,23.5,37.35,5.68
4,-3,1,-0.95,-0.18,0.16,23.5,37.35,5.68
4,-3,1,-0.96,-0.15,0.17,17.7,39.79,6.53
4,-3,1,-0.98,-0.1,0.17,9.95,39.06,5.92
4,-3,0,-1.02,-0.02,0.17,4.88,36.01,4.64
4,-3,0,-1.02,-0.02,0.17,2.38,30.88,2.75
4,-3,0,-1.07,0.04,0.17,2.38,30.88,2.75
4,-3,0,-1.14,0.11,0.16,0.37,23.62,0.24
4,-4,0,-1.18,0.17,0.17,0.85,17.46,-2.2
4,-5,0,-1.21,0.18,0.18,4.03,13.43,-3.23
4,-6,0,-1.21,0.18,0.18,4.03,13.43,-3.23
4,-6,0,-1.24,0.18,0.18,8.3,9.46,-3.3
4,-6,0,-1.23,0.15,0.2,12.45,7.93,-2.99
4,-7,0,-1.22,0.12,0.22,14.4,7.45,-2.93
4,-7,0,-1.22,0.12,0.22,14.04,4.64,-2.56
4,-8,0,-1.24,0.1,0.24,14.04,4.64,-2.56
3,-8,0,-1.25,0.09,0.26,13.67,2.01,-1.89
3,-8,1,-1.25,0.1,0.31,14.04,2.69,-0.92
3,-8,1,-1.24,0.11,0.32,14.16,6.04,0.73
2,-8,1,-1.24,0.11,0.32,14.16,6.04,0.73
2,-8,1,-1.22,0.14,0.29,12.39,9.46,2.01
1,-8,2,-1.17,0.16,0.21,9.28,11.84,3.42
1,-8,2,-1.13,0.23,0.15,7.57,13.61,5.43
0,-8,2,-1.13,0.23,0.15,8.61,13.67,7.93
0,-8,2,-1.08,0.28,0.11,8.61,13.67,7.93
0,-8,2,-1.04,0.32,0.08,11.6,14.1,10.62
0,-8,2,-0.96,0.33,0.08,17.82,16.24,13.37
0,-8,2,-0.96,0.33,0.08,25.76,18.43,15.99
0,-8,2,-0.9,0.29,0.1,25.76,18.43,15.99
0,-8,2,-0.83,0.25,0.12,32.59,19.23,18.13
0,-8,3,-0.76,0.21,0.17,39.73,18.31,20.51
0,-8,3,-0.69,0.15,0.22,46.69,18.37,23.07
-1,-8,3,-0.69,0.15,0.22,46.69,18.37,23.07
-1,-8,3,-0.64,0.11,0.28,52.31,18.55,25.76
-1,-8,3,-0.6,0.05,0.34,56.46,19.41,27.89
-1,-8,3,-0.6,0.01,0.35,59.51,20.26,30.4
-1,-8,3,-0.6,0.01,0.35,59.51,20.26,30.4
-1,-8,3,-0.6,-0.01,0.36,64.27,22.58,33.08
-1,-8,3,-0.6,-0.09,0.43,73.79,25.39,35.46
-1,-8,3,-0.66,-0.17,0.6,85.45,24.41,38.21
-1,-8,3,-0.8,-0.23,0.78,92.22,23.01,40.1
-1,-8,3,-0.8,-0.23,0.78,92.22,23.01,40.1
-1,-8,3,-0.88,-0.31,0.87,86.43,23.5,38.39
-1,-8,3,-0.91,-0.34,0.81,73.49,23.5,35.58
-1,-9,3,-0.93,-0.31,0.67,60.18,19.71,32.96
-1,-9,3,-1.01,-0.24,0.59,51.21,14.53,32.04
-1,-9,3,-1.01,-0.24,0.59,51.21,14.53,32.04
-1,-9,3,-1.02,-0.18,0.58,48.71,13.61,31.25
0,-9,1,-1.03,-0.1,0.57,47.73,11.78,30.09
0,-9,-2,-1.04,-0.09,0.51,46.2,10.19,29.24
0,-9,-4,-1.04,-0.09,0.51,46.57,6.96,29.6
0,-9,-5,-1.07,-0.05,0.5,46.57,6.96,29.6
0,-9,-6,-1.14,-0.03,0.53,47.12,4.76,30.7
0,-9,-6,-1.15,-0.03,0.53,47.3,5.49,30.58
0,-9,-7,-1.14,-0.03,0.49,46.45,4.82,29.6
0,-10,-8,-1.14,-0.03,0.49,46.45,4.82,29.6
0,-10,-8,-1.15,0.02,0.43,46.63,2.2,28.63
0,-10,-8,-1.19,-0.07,0.38,51.57,-2.56,27.83
0,-10,-8,-1.27,-0.03,0.37,56.21,-7.2,26.31
0,-10,-8,-1.35,-0.13,0.35,61.52,-9.09,23.38
0,-10,-8,-1.35,-0.13,0.35,61.52,-9.09,23.38
1,-10,-8,-1.43,-0.26,0.36,66.28,-9.58,19.41
1,-10,-8,-1.49,-0.38,0.38,67.14,-9.89,14.28
1,-10,-8,-1.52,-0.5,0.38,65.61,-9.77,9.09
1,-10,-8,-1.53,-0.56,0.37,62.5,-9.58,4.09
1,-10,-8,-1.53,-0.56,0.37,62.5,-9.58,4.09
1,-10,-8,-1.53,-0.57,0.36,57.8,-9.89,-0.92
1,-10,-8,-1.48,-0.53,0.32,53.53,-6.71,-4.46
1,-11,-8,-1.41,-0.44,0.23,51.03,-3.17,-7.51
1,-10,-8,-1.35,-0.37,0.17,50.35,-1.77,-10.62
1,-10,-8,-1.35,-0.37,0.17,51.33,-2.26,-12.76
1,-10,-8,-1.3,-0.34,0.15,51.33,-2.26,-12.76
2,-10,-8,-1.28,-0.31,0.16,52,-2.93,-15.38
2,-10,-9,-1.26,-0.32,0.18,52.49,-2.69,-18.13
2,-10,-10,-1.23,-0.33,0.23,51.82,0.12,-20.57
3,-10,-11,-1.23,-0.33,0.23,50.35,5,-24.05
3,-10,-11,-1.2,-0.36,0.25,50.35,5,-24.05
4,-10,-12,-1.14,-0.4,0.24,46.94,6.9,-27.1
5,-10,-13,-1.09,-0.45,0.23,41.63,10.31,-29.42
5,-10,-13,-1.02,-0.47,0.22,38.21,11.9,-30.21
5,-10,-14,-1.02,-0.47,0.22,36.13,14.95,-30.7
5,-10,-14,-0.94,-0.48,0.23,36.13,14.95,-30.7
5,-11,-14,-0.81,-0.46,0.23,34.3,17.82,-32.1
5,-11,-15,-0.66,-0.41,0.25,28.38,16.54,-34.55
6,-11,-15,-0.54,-0.35,0.26,20.57,10.93,-36.87
6,-11,-16,-0.43,-0.28,0.25,13.49,7.45,-38.82
6,-11,-16,-0.43,-0.28,0.25,13.49,7.45,-38.82
6,-11,-16,-0.29,-0.21,0.22,6.53,8.36,-41.32
6,-11,-16,-0.23,-0.16,0.15,-0.24,14.89,-44.13
6,-11,-17,-0.15,-0.12,0.09,-3.97,26.37,-45.72
7,-11,-17,-0.1,-0.07,0.06,-5.86,37.72,-46.39
7,-11,-17,-0.1,-0.07,0.06,-5.86,37.72,-46.39
8,-11,-17,-0.03,-0.05,0.03,-9.46,42.6,-47.79
8,-11,-17,0.03,-0.05,0,-14.95,41.99,-48.95
8,-11,-17,0.08,-0.08,-0.01,-20.32,39.55,-49.19
8,-11,-17,0.11,-0.09,0.01,-23.74,35.83,-48.4
8,-11,-17,0.11,-0.09,0.01,-25.7,29.85,-46.08
8,-11,-17,0.09,-0.1,0.06,-25.7,29.85,-46.08
8,-11,-17,0.08,-0.13,0.12,-30.7,23.01,-44.13
8,-11,-17,0.09,-0.14,0.17,-39.12,16.17,-42.6
8,-11,-17,0.04,-0.15,0.23,-48.28,8.54,-40.34
7,-11,-17,0.04,-0.15,0.23,-60.49,-1.59,-38.45
7,-11,-17,0.01,-0.19,0.28,-60.49,-1.59,-38.45
7,-11,-17,-0.15,-0.31,0.4,-73.24,-15.14,-38.39
7,-11,-17,-0.59,-0.23,0.3,-86.85,-42.3,-40.1
7,-11,-17,-1,-0.17,0.12,-110.72,-75.38,-37.11
7,-11,-17,-2.15,-0.39,0.22,-113.83,-106.26,-27.83
7,-11,-17,-2.15,-0.39,0.22,-113.83,-106.26,-27.83
7,-11,-18,-2.97,-0.48,0.77,-101.99,-125.55,-22.28
7,-11,-18,-2.82,0.04,1.19,-119.69,-72.2,-11.6
7,-11,-18,-2.36,0.48,0.59,-124.33,3.54,-9.89
7,-11,-18,-2.1,1.25,0.06,-136.6,6.65,-12.08
7,-11,-18,-2.1,1.25,0.06,-118.23,-21.36,-13
7,-11,-18,-1.81,1.23,0.37,-118.23,-21.36,-13
7,-11,-18,-1.6,0.87,0.59,-68.85,-20.02,-3.05
7,-11,-18,-1.51,0.71,0.43,-47.42,-0.31,6.23
7,-11,-17,-1.46,0.45,0.09,-36.87,9.52,11.6
7,-11,-17,-1.7,0.37,0.06,-25.82,-3.54,17.03
7,-11,-17,-1.7,0.37,0.06,-25.82,-3.54,17.03
7,-11,-17,-1.94,0.18,0.35,-11.41,-24.84,21.18
7,-11,-17,-2.08,0.04,0.63,-3.6,-34.18,24.35
7,-11,-17,-1.93,0.1,0.59,-12.76,-16.6,27.04
7,-11,-17,-1.72,0.15,0.36,-22.16,-2.01,28.87
7,-11,-17,-1.72,0.15,0.36,-22.16,-2.01,28.87
7,-11,-16,-1.57,0.24,0.27,-16.24,2.69,32.29
7,-11,-16,-1.42,0.23,0.33,-0.06,4.33,36.68
7,-11,-16,-1.29,0.17,0.41,7.14,0.73,38.09
7,-11,-16,-1.17,0.13,0.42,-1.04,-2.32,36.93
6,-11,-16,-1.17,0.13,0.42,-1.04,-2.32,36.93
5,-11,-15,-1.05,0.19,0.39,-7.81,-1.22,36.13
5,-12,-14,-0.89,0.25,0.36,-6.41,3.11,36.19
4,-12,-14,-0.66,0.26,0.33,1.53,8.85,35.28
4,-12,-13,-0.53,0.2,0.29,12.94,8.79,35.58
4,-12,-12,-0.53,0.2,0.29,12.94,8.79,35.58
4,-12,-11,-0.37,0.17,0.24,22.64,10.25,36.07
4,-12,-11,-0.27,0.16,0.24,29.05,12.76,37.23
3,-12,-10,-0.18,0.13,0.24,33.26,14.47,38.09
3,-12,-9,-0.18,0.13,0.24,32.04,19.41,36.93
3,-12,-8,-0.11,0.09,0.2,32.04,19.41,36.93
3,-12,-7,-0.08,0.01,0.17,26.73,28.08,36.62
3,-12,-7,-0.02,-0.01,0.14,19.35,33.26,36.38
3,-12,-7,0,-0.01,0.09,11.96,34.06,36.01
3,-12,-7,0,-0.01,0.09,11.96,34.06,36.01
3,-12,-7,0.06,-0.05,0.03,9.58,32.53,36.44
3,-12,-7,0.09,-0.02,0,8.54,30.7,36.87
3,-12,-7,0.07,0.01,-0.02,8.3,27.1,37.72
3,-12,-7,0.07,0.01,-0.02,10.01,23.68,38.15
3,-12,-7,0.06,0.02,-0.03,10.01,23.68,38.15
3,-12,-7,0.06,0.02,-0.01,13.67,21.24,37.23
3,-12,-7,0.05,0.02,0.02,17.88,15.93,36.87
3,-12,-7,0.04,-0.01,0.08,22.71,7.14,37.23
3,-12,-7,0.04,-0.01,0.08,22.71,7.14,37.23
3,-12,-7,-0.14,-0.01,0.05,26.55,-3.42,37.17
3,-12,-7,-0.47,-0.05,-0.1,38.27,-13.61,35.89
3,-12,-7,-0.93,-0.15,-0.37,66.04,-25.39,34.12
3,-12,-7,-1.24,-0.44,-0.31,115.11,-44.86,29.48
3,-12,-7,-1.24,-0.44,-0.31,115.11,-44.86,29.48
3,-12,-7,-1.51,-0.98,0.96,156.43,-72.45,28.81
3,-12,-7,-2.26,-1.35,2.03,117.25,-121.52,29.6
3,-12,-7,-2.74,-1.15,1.25,27.34,-107.24,24.23
3,-12,-7,-2.5,-0.66,0.38,-17.88,-7.75,19.29
3,-12,-7,-2.5,-0.66,0.38,-17.88,-7.75,19.29
3,-12,-7,-2.04,0.19,0.17,-25.51,26.25,12.88
3,-12,-7,-2.11,0.9,0.41,-20.14,-3.6,12.57
3,-12,-7,-2.02,0.74,0.23,-4.21,-8.3,14.65
3,-12,-7,-1.67,0.37,0.09,25.51,20.2,12.88
3,-12,-7,-1.67,0.37,0.09,48.89,26.37,7.57
3,-12,-7,-1.61,-0.14,0,48.89,26.37,7.57
3,-12,-7,-1.74,-0.51,0.13,58.84,10.19,2.01
3,-12,-7,-1.81,-0.74,0.3,58.41,0,-4.7
3,-12,-7,-1.75,-0.86,0.33,51.76,-2.01,-13.67
3,-12,-7,-1.75,-0.86,0.33,51.76,-2.01,-13.67
3,-12,-7,-1.6,-0.89,0.31,42.24,0.55,-21.12
3,-12,-7,-1.46,-0.81,0.27,35.71,2.69,-25.09
3,-12,-7,-1.27,-0.73,0.26,30.64,2.08,-24.66
3,-12,-7,-1.15,-0.61,0.27,26.79,-1.77,-23.56
3,-12,-7,-1.01,-0.41,0.22,13.37,-0.43,-25.45
3,-12,-7,-1.01,-0.41,0.22,13.37,-0.43,-25.45
4,-12,-8,-0.88,-0.43,0.14,6.9,3.6,-26.31
5,-12,-9,-0.83,-0.37,0.14,3.97,4.7,-24.78
6,-12,-10,-0.68,-0.29,0.16,1.89,6.35,-23.32
6,-12,-10,-0.55,-0.18,0.16,-2.99,12.63,-23.44
7,-12,-10,-0.55,-0.18,0.16,-2.99,12.63,-23.44
7,-12,-11,-0.42,-0.1,0.16,-6.59,16.17,-24.23
7,-12,-11,-0.32,-0.07,0.17,-6.53,19.84,-25.09
7,-12,-11,-0.23,-0.04,0.18,-9.58,22.03,-26.12
7,-12,-11,-0.13,-0.03,0.16,-15.2,20.87,-27.22
7,-12,-11,-0.12,-0.02,0.13,-22.95,18.74,-28.69
7,-12,-11,-0.12,-0.02,0.13,-22.95,18.74,-28.69
7,-12,-11,-0.07,-0.01,0.09,-29.48,20.08,-29.11
7,-13,-11,-0.02,-0.03,0.04,-35.77,24.48,-30.58
7,-13,-11,-0.01,-0.05,-0.02,-41.99,29.42,-32.23
7,-13,-11,0.02,-0.08,-0.05,-46.33,34.06,-32.96
7,-13,-11,0.02,-0.08,-0.05,-48.16,36.8,-32.65
7,-13,-11,0.03,-0.07,-0.06,-48.16,36.8,-32.65
7,-13,-11,0.01,-0.09,-0.07,-52.8,36.07,-32.71
7,-13,-11,0,-0.1,-0.09,-59.88,31.31,-32.59
7,-13,-11,0.01,-0.1,-0.07,-63.78,25.82,-30.7
7,-13,-11,0.02,-0.11,-0.03,-63.9,17.7,-28.87
7,-13,-11,0.02,-0.11,-0.03,-63.9,17.7,-28.87
7,-13,-11,0,-0.11,0.01,-64.7,9.89,-26.61
7,-13,-11,-0.02,-0.11,0.09,-65.37,3.42,-25.51
7,-13,-11,-0.13,-0.13,0.11,-64.82,-4.09,-26.49
7,-13,-11,-0.26,-0.14,0.19,-61.34,-20.87,-28.26
7,-13,-11,-0.26,-0.14,0.19,-61.46,-51.21,-28.08
7,-13,-11,-0.87,-0.26,0.1,-61.46,-51.21,-28.08
7,-13,-11,-2.1,-0.2,-0.15,-78.49,-93.75,-21.18
7,-13,-11,-3.17,-0.22,0.07,-83.44,-152.65,-12.02
7,-13,-11,-3.42,-0.11,1.49,-83.25,-168.58,-1.65
7,-13,-11,-3.11,0.35,1.57,-92.65,-59.75,-0.12
7,-13,-11,-3.11,0.35,1.57,-133.42,17.82,-8.97
7,-13,-11,-2.42,1.4,0.36,-133.42,17.82,-8.97
7,-13,-11,-2.25,1.51,0.13,-135.86,-3.42,-12.21
7,-13,-11,-1.81,1.06,0.14,-85.57,-10.8,-6.29
7,-13,-11,-1.45,0.58,0.28,-40.28,5.31,4.09
7,-13,-11,-1.32,0.28,0.13,-21,12.45,12.7
7,-13,-11,-1.32,0.28,0.13,-21,12.45,12.7
7,-13,-11,-1.48,0.09,0.03,-12.76,-1.34,18.62
7,-12,-11,-1.64,0.07,0.19,-7.93,-22.95,26.12
7,-12,-11,-1.85,0.13,0.44,-6.35,-38.15,29.05
7,-12,-10,-1.88,0.24,0.56,-9.77,-34.67,29.05
7,-13,-10,-1.88,0.24,0.56,-9.77,-34.67,29.05
7,-13,-10,-1.73,0.35,0.38,-12.94,-18.31,29.24
7,-13,-10,-1.47,0.34,0.24,-11.54,-4.39,30.64
6,-13,-10,-1.22,0.23,0.21,-2.69,0.98,33.57
6,-12,-10,-1.07,0.16,0.2,5.13,-0.92,37.17
5,-12,-10,-1.07,0.16,0.2,5.13,-0.92,37.17
5,-12,-10,-0.93,0.1,0.24,12.21,-3.36,39.18
4,-12,-10,-0.83,-0.02,0.25,13.24,-5.68,40.16
4,-13,-10,-0.72,-0.01,0.26,10.01,-6.23,40.16
4,-13,-10,-0.64,0.04,0.28,12.27,-6.23,40.89
4,-13,-10,-0.64,0.04,0.28,16.78,-5.74,40.83
4,-13,-10,-0.52,0.07,0.31,16.78,-5.74,40.83
4,-13,-9,-0.39,0.07,0.29,16.48,-4.09,37.9
3,-13,-9,-0.31,0.04,0.23,12.15,-1.59,33.57
3,-13,-9,-0.3,0.05,0.19,9.52,4.7,31.74
3,-13,-9,-0.3,0.05,0.19,9.52,4.7,31.74
3,-13,-9,-0.26,0.04,0.14,12.45,16.36,31.37
2,-13,-9,-0.2,0.04,0.07,16.72,29.11,31.25
2,-13,-9,-0.15,0.02,0.06,25.15,40.41,32.59
2,-13,-9,-0.15,0.02,0.06,33.63,52.25,33.2
2,-13,-9,-0.09,-0.03,0.01,33.63,52.25,33.2
2,-13,-9,-0.02,-0.07,-0.03,38.21,57.92,33.69
2,-13,-9,0.04,-0.07,-0.07,37.72,54.87,34.73
2,-13,-9,0.08,-0.05,-0.11,34.36,42.85,35.71
2,-14,-9,0.08,-0.05,-0.11,31.25,24.54,36.44
2,-14,-9,0.08,-0.04,-0.13,31.25,24.54,36.44
2,-14,-8,0.05,-0.01,-0.13,28.87,6.84,36.87
2,-14,-8,-0.01,0.01,-0.12,28.75,-3.48,37.05
2,-14,-8,-0.02,0.01,-0.08,32.04,-5.19,37.6
2,-14,-8,-0.02,0.01,-0.08,36.25,-1.83,37.11
2,-14,-8,-0.01,0.01,0,36.25,-1.83,37.11
1,-14,-8,-0.02,0.01,0.06,38.15,1.53,35.58
1,-14,-8,-0.17,-0.05,0.04,39.31,-0.24,33.57
1,-14,-8,-0.48,-0.12,0.05,50.66,-9.95,30.76
1,-14,-8,-0.48,-0.12,0.05,80.44,-44.92,24.9
1,-14,-8,-1.32,-0.34,-0.36,80.44,-44.92,24.9
1,-14,-8,-2.45,-0.75,-0.98,132.63,-72.69,23.93
1,-14,-8,-1.85,-1.53,0.7,182.68,-58.84,34.67
1,-14,-8,-2.67,-1.7,2.64,132.81,-120.36,40.1
1,-14,-8,-3.31,-1.04,1.2,-1.89,-108.76,27.77
1,-14,-9,-3.31,-1.04,1.2,-1.89,-108.76,27.77
1,-14,-9,-2.34,-0.21,0.16,-66.89,7.51,1.34
1,-14,-9,-2,0.38,0.02,-56.7,21.3,-5.07
1,-14,-9,-1.9,0.59,0.09,-27.71,-6.41,2.87
1,-13,-9,-1.65,0.3,0.05,-2.5,11.6,8
1,-13,-9,-1.65,0.3,0.05,-2.5,11.6,8
1,-13,-9,-1.59,-0.06,-0.25,10.86,23.86,6.9
1,-13,-8,-1.69,-0.42,-0.35,21.55,3.78,4.52
1,-13,-8,-1.84,-0.63,-0.05,33.02,-20.45,4.27
1,-13,-8,-1.89,-0.75,0.17,34.12,-34.42,0.43
2,-13,-8,-1.89,-0.75,0.17,34.12,-34.42,0.43
2,-13,-8,-1.86,-0.66,0.24,29.05,-37.9,-5.68
2,-13,-8,-1.71,-0.6,0.2,28.32,-27.65,-9.46
2,-13,-8,-1.53,-0.54,0.11,30.82,-16.72,-12.88
2,-13,-8,-1.45,-0.47,0.06,30.27,-14.47,-16.17
2,-13,-8,-1.45,-0.47,0.06,33.02,-13.24,-18.55
2,-13,-8,-1.33,-0.4,0.08,33.02,-13.24,-18.55
3,-12,-8,-1.17,-0.35,0.1,37.17,-8.24,-20.87
5,-12,-9,-1.02,-0.34,0.06,36.44,-3.91,-23.56
7,-11,-9,-0.91,-0.36,0.09,35.77,-0.18,-24.6
8,-10,-9,-0.84,-0.29,0.13,33.63,2.56,-25.63
10,-10,-10,-0.84,-0.29,0.13,33.63,2.56,-25.63
11,-10,-10,-0.66,-0.2,0.19,31.74,6.53,-27.95
12,-10,-10,-0.52,-0.16,0.19,30.7,14.22,-27.95
13,-10,-10,-0.39,-0.16,0.18,26.67,23.93,-27.77
14,-10,-10,-0.31,-0.16,0.18,21.06,32.59,-27.77
14,-10,-10,-0.31,-0.16,0.18,13.85,36.87,-27.1
14,-10,-10,-0.24,-0.17,0.19,13.85,36.87,-27.1
14,-10,-10,-0.17,-0.13,0.21,3.78,40.22,-27.16
14,-10,-11,-0.1,-0.13,0.21,-6.35,41.93,-28.99
14,-11,-11,-0.08,-0.09,0.18,-19.65,44.19,-31.01
14,-11,-11,-0.08,-0.09,0.18,-31.62,53.41,-33.81
14,-11,-12,-0.04,-0.1,0.12,-31.62,53.41,-33.81
14,-11,-12,-0.01,-0.09,0.06,-41.02,65.61,-35.4
14,-11,-12,0.01,-0.06,0.01,-49.44,73.61,-35.83
14,-11,-12,0.02,-0.04,-0.03,-54.08,75.32,-35.71
14,-11,-12,0.02,-0.03,-0.02,-54.08,70.92,-35.64
14,-11,-12,0.02,-0.03,-0.02,-54.08,70.92,-35.64
14,-11,-12,-0.02,-0.02,-0.02,-55.91,63.78,-35.34
14,-11,-12,-0.04,-0.04,-0.02,-57.07,53.96,-35.71
14,-11,-12,-0.02,-0.05,-0.01,-55.05,44.37,-35.34
14,-11,-12,-0.02,-0.06,0,-49.93,37.29,-34.12
14,-11,-12,-0.02,-0.06,0,-43.76,30.88,-32.47
14,-11,-12,-0.04,-0.04,0.01,-43.76,30.88,-32.47
14,-11,-12,-0.1,-0.14,0.06,-33.45,18.55,-30.88
14,-11,-12,-0.07,-0.22,0.11,-27.71,-2.75,-32.23
14,-11,-12,-0.7,-0.35,-0.01,-34.3,-29.6,-30.94
14,-11,-12,-2.83,-1.28,-0.65,-44.56,-58.84,-24.41
14,-11,-12,-2.83,-1.28,-0.65,-82.58,-90.39,-1.89
14,-11,-12,-3.23,-1.55,-0.9,-82.58,-90.39,-1.89
14,-11,-12,-2.36,-0.5,0.84,-162.23,-124.76,10.44
14,-11,-12,-3.76,0.91,2.81,-220.4,-213.99,10.86
14,-11,-12,-3.22,1.26,0.4,-188.54,-113.89,-12.45
14,-11,-12,-2.18,1.54,-0.21,-152.4,12.15,-31.07
14,-11,-12,-2.18,1.54,-0.21,-109.5,-0.79,-17.15
14,-11,-12,-1.95,1.01,-0.08,-109.5,-0.79,-17.15
14,-11,-12,-1.72,0.6,-0.08,-76.84,8.48,1.1
14,-11,-12,-1.48,0.21,0.01,-51.76,33.87,11.41
14,-11,-11,-1.26,-0.16,-0.12,-45.47,32.84,17.88
14,-10,-11,-1.37,-0.3,-0.01,-44.31,9.7,27.22
14,-10,-11,-1.37,-0.3,-0.01,-44.31,9.7,27.22
14,-10,-11,-1.7,-0.27,0.31,-51.15,-24.05,32.53
14,-10,-11,-1.82,-0.1,0.6,-58.9,-46.57,35.58
14,-10,-11,-1.71,0.08,0.64,-65.31,-33.63,37.72
14,-10,-11,-1.52,0.26,0.52,-69.76,-15.99,39.49
14,-10,-11,-1.52,0.26,0.52,-69.76,-15.99,39.49
14,-10,-11,-1.21,0.31,0.33,-74.28,-6.59,38.88
14,-11,-11,-0.99,0.31,0.22,-70.37,-2.81,39.06
14,-11,-11,-0.83,0.27,0.16,-53.71,0.61,44.19
14,-11,-11,-0.67,0.3,0.17,-36.87,-0.67,47.42
14,-11,-11,-0.67,0.3,0.17,-36.87,-0.67,47.42
14,-11,-11,-0.51,0.1,0.14,-31.01,-5.31,46.33
14,-11,-11,-0.5,-0.05,0.14,-31.01,-8.06,46.02
13,-11,-11,-0.41,-0.03,0.12,-33.69,0.31,47.73
13,-11,-11,-0.31,-0.06,0.13,-29.97,19.65,48.71
13,-12,-11,-0.31,-0.06,0.13,-24.35,39.18,48.95
13,-12,-11,-0.24,-0.08,0.12,-24.35,39.18,48.95
13,-12,-11,-0.14,-0.15,0.11,-23.44,54.63,49.19
13,-12,-11,-0.11,-0.18,0.09,-29.05,67.93,50.66
13,-12,-11,-0.03,-0.17,0.07,-32.59,75.99,52.12
14,-12,-11,0,-0.13,0.09,-27.65,76.78,55.18
14,-12,-11,0,-0.13,0.09,-27.65,76.78,55.18
14,-12,-11,0.04,-0.12,0.07,-28.2,71.23,57.92
14,-12,-11,0.04,-0.11,0.04,-39.18,60.91,59.45
14,-12,-11,0.03,-0.11,-0.01,-54.87,49.87,59.14
14,-12,-11,0.02,-0.09,-0.03,-66.28,37.41,58.29
14,-12,-11,0.02,-0.09,-0.03,-66.28,37.41,58.29
14,-12,-11,-0.01,-0.05,-0.04,-72.27,23.68,57.92
14,-12,-11,-0.05,-0.02,-0.05,-71.84,12.88,58.78
14,-12,-11,-0.08,-0.02,-0.04,-70.31,8.67,59.51
14,-12,-11,-0.09,-0.07,-0.05,-68.48,6.53,59.39
14,-12,-11,-0.09,-0.07,-0.05,-68.48,6.53,59.39
14,-12,-11,-0.5,-0.31,-0.2,-65.61,2.99,58.41
14,-12,-11,-2.72,-1.98,-1.1,-51.88,-13.31,57.62
14,-12,-11,-2.47,-1.7,-1.55,-45.78,-29.85,65.61
14,-12,-11,-1.08,-0.53,0.18,-78.43,-39.06,71.23
14,-12,-11,-3.27,-0.15,4,-68.73,-262.94,76.6
14,-12,-11,-3.27,-0.15,4,-68.73,-262.94,76.6
14,-12,-11,-3.87,-0.05,2.51,-88.07,-267.76,52.86
13,-12,-11,-1.94,0.36,0.24,-166.02,37.84,12.94
13,-12,-11,-1.74,0.64,-0.64,-182.8,66.96,13.98
13,-12,-11,-1.58,0.61,-0.47,-136.96,25.21,25.63
13,-12,-11,-1.58,0.61,-0.47,-86.43,42.11,28.5
13,-12,-11,-1.31,0.16,-0.16,-86.43,42.11,28.5
13,-12,-11,-1.15,-0.25,0.03,-63.42,57.5,29.24
13,-12,-11,-1.01,-0.57,0.02,-67.87,50.54,27.53
13,-12,-11,-1.12,-0.74,0.17,-78.67,37.6,29.79
13,-12,-11,-1.12,-0.74,0.17,-96.31,33.39,29.85
13,-12,-11,-1.16,-0.7,0.34,-96.31,33.39,29.85
13,-12,-11,-1.09,-0.66,0.34,-109.99,38.76,29.3
13,-12,-11,-1.13,-0.6,0.35,-116.46,47.49,29.97
13,-12,-11,-1.17,-0.47,0.33,-126.59,51.94,29.79
13,-12,-11,-0.99,-0.41,0.2,-139.16,57.56,30.7
14,-12,-12,-0.99,-0.41,0.2,-139.16,57.56,30.7
14,-12,-12,-0.78,-0.31,0.07,-145.08,63.9,33.2
14,-12,-12,-0.68,-0.17,-0.01,-145.57,60.3,38.21
14,-12,-12,-0.55,-0.08,-0.02,-143.62,53.96,41.75
14,-12,-12,-0.52,-0.03,-0.03,-141.36,50.23,42.91
14,-12,-11,-0.52,-0.03,-0.03,-138.18,45.84,41.99
14,-12,-11,-0.39,0.02,0,-138.18,45.84,41.99
14,-12,-11,-0.37,-0.07,0.04,-133.61,36.62,40.71
14,-12,-11,-0.32,-0.08,0.05,-135.74,28.2,37.84
14,-12,-11,-0.25,-0.1,0,-144.47,20.08,35.22
14,-11,-11,-0.25,-0.1,0,-155.82,10.31,32.96
14,-11,-11,-0.19,-0.07,-0.03,-155.82,10.31,32.96
14,-10,-11,-0.24,-0.04,-0.01,-161.01,-1.89,31.62
14,-10,-11,-0.29,-0.01,0.11,-156.92,-6.59,30.4
14,-10,-11,-0.33,0,0.18,-149.41,-7.08,31.07
13,-10,-11,-0.43,-0.03,0.22,-150.63,-10.93,31.37
13,-10,-11,-0.43,-0.03,0.22,-150.63,-10.93,31.37
13,-10,-11,-0.57,0.03,0.2,-161.32,-19.78,31.07
13,-10,-11,-0.82,0.19,0.27,-170.41,-32.71,31.86
13,-11,-11,-1.08,0.35,0.38,-174.07,-41.87,33.63
13,-11,-11,-1.3,0.36,0.4,-169.98,-42.3,34.42
13,-11,-11,-1.3,0.36,0.4,-163.15,-30.94,33.26
13,-11,-11,-1.38,0.37,0.23,-163.15,-30.94,33.26
13,-11,-11,-1.28,0.39,0.22,-160.16,-10.38,32.84
13,-11,-11,-1.22,0.51,0.25,-161.74,1.53,32.71
12,-11,-11,-1.14,0.58,0.25,-162.84,1.1,32.84
12,-11,-11,-1.14,0.58,0.25,-160.46,0.43,33.57
12,-11,-11,-1.02,0.56,0.22,-160.46,0.43,33.57
12,-11,-11,-0.88,0.56,0.19,-156.92,0.92,35.89
11,-11,-11,-0.83,0.58,0.14,-153.2,-1.34,39.18
11,-11,-10,-0.84,0.55,0.11,-145.2,-7.87,42.66
11,-10,-10,-0.84,0.55,0.11,-133.12,-16.11,47.06
10,-10,-10,-0.93,0.48,0.17,-133.12,-16.11,47.06
10,-10,-9,-1,0.42,0.26,-123.78,-20.94,51.15
9,-11,-9,-1.04,0.37,0.31,-119.75,-20.26,55.18
9,-11,-8,-1.03,0.36,0.3,-116.27,-17.94,59.63
8,-11,-8,-1.03,0.36,0.3,-112.43,-17.46,63.96
8,-11,-7,-1.03,0.37,0.28,-112.43,-17.46,63.96
8,-11,-7,-1.03,0.36,0.25,-109.44,-17.82,67.08
7,-11,-7,-1.05,0.33,0.23,-106.69,-18.92,69.03
7,-11,-7,-1.09,0.34,0.25,-104.86,-21.67,69.46
7,-11,-6,-1.12,0.34,0.25,-102.42,-23.19,68.85
6,-11,-5,-1.12,0.34,0.25,-102.42,-23.19,68.85
4,-11,-1,-1.12,0.33,0.25,-98.27,-22.95,67.5
2,-12,8,-1.11,0.29,0.27,-93.93,-22.77,65.92
1,-12,10,-1.08,0.24,0.27,-90.21,-23.62,64.82
0,-12,11,-1.06,0.21,0.26,-87.16,-24.05,63.17
0,-12,12,-1.06,0.21,0.26,-87.16,-24.05,63.17
0,-13,12,-1.03,0.18,0.25,-85.69,-24.66,62.01
-1,-13,12,-0.99,0.15,0.22,-85.45,-25.76,60.79
-1,-13,13,-0.95,0.15,0.21,-85.94,-27.34,59.2
-1,-13,13,-0.91,0.16,0.19,-87.65,-29.66,57.19
-1,-13,13,-0.91,0.16,0.19,-88.99,-31.86,55.11
-2,-13,14,-0.88,0.18,0.16,-88.99,-31.86,55.11
-2,-13,14,-0.83,0.21,0.16,-89.05,-34,53.1
-3,-13,15,-0.78,0.19,0.15,-88.38,-36.87,51.15
-4,-13,15,-0.75,0.19,0.16,-87.59,-39.43,49.87
-4,-12,15,-0.75,0.19,0.16,-88.07,-40.28,48.77
-5,-12,15,-0.71,0.21,0.14,-88.07,-40.28,48.77
-5,-12,15,-0.67,0.21,0.11,-89.17,-41.02,47.73
-5,-12,15,-0.65,0.2,0.09,-88.99,-42.42,46.39
-6,-12,16,-0.63,0.2,0.09,-88.2,-43.03,44.8
-6,-12,16,-0.61,0.19,0.08,-87.52,-43.52,43.64
-6,-12,16,-0.61,0.19,0.08,-87.52,-43.52,43.64
-7,-12,16,-0.62,0.16,0.06,-87.28,-43.09,42.66
-7,-12,16,-0.6,0.12,0.06,-85.75,-41.81,41.99
-7,-12,16,-0.55,0.07,0.08,-84.35,-38.94,41.56
-7,-12,16,-0.53,0.07,0.1,-83.62,-36.25,41.02
-7,-12,16,-0.53,0.07,0.1,-83.62,-36.25,41.02
-7,-12,16,-0.49,0.07,0.1,-82.95,-33.51,40.59
-7,-12,16,-0.43,0.05,0.1,-80.32,-28.14,40.47
-7,-12,16,-0.36,0.02,0.08,-78.12,-21.3,39.92
-7,-12,16,-0.3,-0.03,0.06,-79.1,-14.83,39
-7,-12,16,-0.3,-0.03,0.06,-80.57,-11.54,37.66
-7,-12,16,-0.25,-0.09,0.05,-80.57,-11.54,37.66
-7,-12,16,-0.21,-0.13,0.06,-82.46,-11.35,36.38
-7,-12,16,-0.19,-0.13,0.07,-89.23,-12.63,34.55
-7,-12,16,-0.2,-0.13,0.06,-96.31,-13.31,33.81
-7,-12,16,-0.19,-0.12,0.06,-101.62,-10.25,33.63
-7,-12,16,-0.19,-0.12,0.06,-101.62,-10.25,33.63
-7,-12,16,-0.18,-0.11,0.06,-105.83,-6.35,34
-7,-12,16,-0.17,-0.1,0.05,-109.01,-3.23,35.16
-7,-12,16,-0.17,-0.11,0.03,-112.43,-0.06,36.44
-7,-12,15,-0.21,-0.13,-0.01,-116.7,2.93,37.78
-6,-12,15,-0.44,-0.19,-0.1,-118.71,4.58,38.7
-6,-12,15,-0.44,-0.19,-0.1,-118.71,4.58,38.7
-5,-12,15,-1.07,-0.4,-0.57,-116.15,4.52,37.6
-5,-12,15,-2.03,-0.65,-1.53,-90.52,10.8,32.35
-5,-12,15,-2.5,-0.64,-1.87,-34.79,18.86,32.29
-5,-12,15,-1.76,-0.79,-0.6,-12.63,-43.09,44.74
-5,-12,15,-2.61,-0.85,3.11,-35.77,-234.13,50.23
-4,-12,15,-2.61,-0.85,3.11,-35.77,-234.13,50.23
-4,-12,15,-3.59,-0.75,3.12,-57.13,-269.1,40.34
-4,-12,15,-1.96,-0.03,0.73,-144.9,22.34,8.91
-4,-12,15,-1.76,0.03,-0.29,-184.33,66.47,1.71
-4,-12,15,-1.43,0.24,-0.22,-162.78,34.36,16.54
-4,-12,15,-1.43,0.24,-0.22,-162.78,34.36,16.54
-4,-12,15,-1.28,0.2,-0.01,-130.8,39.61,27.16
-4,-12,15,-1.17,0.01,0.13,-108.34,42.72,28.69
-4,-12,15,-1.11,-0.14,0.03,-103.76,26.79,25.39
-4,-12,15,-1.21,-0.15,0.12,-95.58,10.68,24.54
-4,-12,15,-1.21,-0.15,0.12,-95.58,10.68,24.54
-4,-12,15,-1.28,-0.15,0.26,-87.28,-0.79,21.42
-4,-12,15,-1.22,-0.1,0.23,-83.68,-5.74,16.66
-4,-12,15,-1.27,-0.11,0.17,-81.73,-7.08,12.63
-4,-12,15,-1.33,-0.12,0.16,-75.44,-8.97,10.62
-4,-12,15,-1.34,-0.1,0.11,-65.61,-10.01,9.77
-4,-12,15,-1.34,-0.1,0.11,-65.61,-10.01,9.77
-3,-12,15,-1.29,-0.26,0.13,-51.21,-11.9,8.24
-2,-11,15,-1.22,-0.21,0.15,-53.65,-18.01,4.03
-2,-11,15,-1.14,-0.27,0.09,-60.97,-25.39,0.79
-1,-11,15,-1.13,-0.2,0.1,-62.62,-30.94,0.79
-1,-11,15,-1.13,-0.2,0.1,-58.72,-28.38,2.69
-1,-10,15,-1.07,-0.13,0.05,-58.72,-28.38,2.69
0,-10,14,-0.89,-0.09,0.02,-55.97,-20.32,3.23
0,-9,14,-0.74,-0.1,0,-55.79,-14.59,3.66
0,-9,14,-0.64,-0.1,0.03,-57.8,-10.31,4.33
0,-9,14,-0.52,-0.06,0.09,-61.95,-4.58,4.88
1,-9,14,-0.52,-0.06,0.09,-61.95,-4.58,4.88
1,-9,14,-0.41,-0.03,0.13,-65.31,2.62,4.94
1,-9,14,-0.33,-0.02,0.16,-66.89,10.74,5.31
1,-9,13,-0.27,-0.04,0.2,-63.72,18.74,5.49
2,-9,13,-0.21,-0.12,0.23,-63.11,23.86,4.7
2,-9,13,-0.21,-0.12,0.23,-63.11,23.86,4.7
2,-9,13,-0.13,-0.15,0.23,-69.34,26.12,3.48
2,-9,13,-0.07,-0.15,0.22,-78.06,26.73,3.66
2,-9,13,-0.08,-0.14,0.19,-88.5,28.2,4.15
2,-9,13,-0.08,-0.14,0.19,-95.64,32.29,4.15
2,-9,12,-0.12,-0.13,0.12,-95.64,32.29,4.15
2,-9,12,-0.12,-0.12,0.08,-102.23,42.54,4.33
2,-9,12,-0.08,-0.1,0.02,-109.56,55.24,5.19
2,-9,12,-0.04,-0.06,-0.04,-111.39,62.07,8.06
2,-9,12,-0.04,-0.06,-0.04,-106.02,60.06,11.54
2,-9,12,-0.05,0,-0.08,-106.02,60.06,11.54
2,-9,12,-0.07,-0.04,-0.09,-94.73,50.23,14.34
2,-9,12,-0.04,-0.05,-0.11,-87.83,39.98,14.71
2,-9,12,-0.03,-0.06,-0.11,-85.14,31.86,16.3
2,-9,12,-0.03,-0.06,-0.11,-80.2,21.12,18.43
2,-9,12,-0.04,-0.08,-0.07,-80.2,21.12,18.43
2,-9,12,-0.03,-0.09,-0.05,-80.2,9.34,20.14
2,-9,12,-0.12,-0.07,-0.05,-82.95,-2.81,21.3
2,-9,12,-0.66,-0.19,-0.26,-82.64,-18.49,22.16
2,-9,12,-3.27,-1.1,-1.46,-79.1,-49.01,29.05
2,-9,12,-3.27,-1.1,-1.46,-79.1,-49.01,29.05
2,-9,13,-3.43,-1.01,-2.62,-92.04,-79.9,57.68
2,-9,13,-1.88,0.71,-1.83,-112.3,-137.88,67.69
2,-9,13,-3.36,3.88,3.37,-79.9,-395.32,70.13
2,-9,13,-4,0.02,4,165.34,-513.37,59.51
2,-9,13,-4,0.02,4,165.34,-513.37,59.51
2,-9,13,-2.56,0.87,1,31.19,-66.16,24.9
2,-9,13,-1.47,0.54,0.14,-74.58,74.16,6.53
2,-9,13,-1.06,0.36,-0.21,-82.03,51.45,17.09
2,-9,13,-0.88,0.19,0,-53.22,33.2,29.54
2,-9,13,-0.88,0.19,0,-53.22,33.2,29.54
2,-9,13,-0.8,0.13,0.02,-38.21,18.92,34.24
2,-9,13,-0.7,-0.06,-0.08,-22.89,3.42,35.95
2,-9,13,-0.74,0.04,-0.07,-13.12,-19.53,38.27
2,-9,13,-0.73,0.12,-0.07,-8.36,-37.72,36.56
2,-9,13,-0.73,0.12,-0.07,-8.36,-37.72,36.56
2,-9,13,-0.78,0.15,0.04,8.54,-50.96,35.34
2,-9,13,-0.89,0.05,0.19,26.31,-61.04,34.12
2,-9,13,-0.98,-0.02,0.27,34.36,-61.28,33.51
2,-9,13,-0.98,-0.02,0.27,34.24,-50.78,33.02
2,-9,13,-0.92,0.03,0.27,34.24,-50.78,33.02
2,-9,13,-0.8,0.11,0.19,31.13,-40.04,31.62
1,-9,13,-0.64,0.15,0.08,31.74,-29.54,28.2
1,-9,13,-0.44,0.11,0.01,34.73,-19.35,24.41
1,-9,13,-0.44,0.11,0.01,34.73,-19.35,24.41
1,-9,13,-0.32,0.08,-0.03,37.78,-9.34,21.24
1,-9,13,-0.24,0,-0.03,42.72,-3.91,19.96
1,-9,13,-0.24,-0.06,-0.03,43.15,-0.73,19.23
1,-9,13,-0.24,-0.06,-0.03,34.73,2.81,17.4
1,-9,13,-0.18,-0.12,-0.02,34.73,2.81,17.4
1,-9,13,-0.16,-0.19,0,25.27,0.43,14.22
1,-9,13,-0.16,-0.23,0.03,15.87,-6.65,10.01
1,-9,13,-0.19,-0.23,0.04,6.29,-14.71,9.64
1,-9,13,-0.19,-0.23,0.04,1.89,-18.31,12.63
1,-9,13,-0.25,-0.23,0.04,1.89,-18.31,12.63
1,-9,13,-0.32,-0.29,0.05,-0.24,-13.55,14.83
1,-9,13,-0.62,-0.45,-0.05,-9.7,-4.33,15.2
1,-8,13,-1.5,-0.82,-0.55,-22.77,1.28,13.85
1,-8,13,-2.57,-0.84,-1.17,-23.74,4.21,6.96
1,-8,13,-2.57,-0.84,-1.17,-23.74,4.21,6.96
1,-8,13,-2.29,-0.56,-0.39,-11.11,-24.41,7.57
1,-8,13,-2.9,-0.97,1.81,-21.24,-125.18,13.24
1,-8,13,-3.54,-0.49,1.12,-39.92,-121.64,12.39
1,-8,13,-2.28,-0.06,0.29,-30.64,28.56,-11.05
1,-8,13,-2.28,-0.06,0.29,-30.64,28.56,-11.05
1,-8,13,-1.96,0.18,-0.02,-43.03,42.72,-24.05
1,-8,13,-1.62,0.3,0.12,-39.73,14.28,-23.44
1,-8,13,-1.38,0.13,0.15,-32.29,31.13,-18.19
1,-8,13,-1.2,-0.11,0.05,-30.03,41.69,-13.55
1,-8,13,-1.2,-0.11,0.05,-30.03,41.69,-13.55
1,-8,13,-1.15,-0.33,-0.13,-31.31,35.77,-10.44
1,-8,13,-1.15,-0.49,-0.19,-34.55,21.48,-9.4
1,-8,13,-1.1,-0.57,-0.11,-33.51,10.8,-9.09
2,-8,13,-1.04,-0.47,0.05,-28.99,1.1,-9.22
2,-8,12,-1.08,-0.31,0.14,-29.48,-6.9,-10.13
2,-8,12,-1.08,-0.31,0.14,-29.48,-6.9,-10.13
2,-8,12,-1.07,-0.19,0.12,-30.27,-9.46,-11.78
2,-8,12,-1.04,-0.13,0.1,-28.08,-5.74,-12.76
2,-8,12,-0.97,-0.09,0.11,-26.67,-0.49,-13
2,-8,12,-0.97,-0.12,0.05,-25.45,4.39,-12.45
2,-8,12,-0.97,-0.12,0.05,-24.05,10.01,-12.27
2,-8,12,-0.89,-0.1,0.05,-24.05,10.01,-12.27
2,-7,12,-0.83,-0.17,0.04,-19.35,9.83,-11.41
2,-7,12,-0.76,-0.19,0.08,-18.55,6.29,-11.78
2,-7,11,-0.7,-0.2,0.11,-21.73,4.27,-12.57
2,-7,11,-0.7,-0.2,0.11,-25.76,4.39,-13.18
3,-7,10,-0.62,-0.17,0.16,-25.76,4.39,-13.18
3,-7,10,-0.54,-0.11,0.21,-29.91,7.75,-13.37
3,-7,9,-0.46,-0.09,0.27,-36.68,11.47,-14.47
3,-7,9,-0.39,-0.07,0.28,-48.22,15.99,-15.63
3,-7,9,-0.35,-0.04,0.23,-60.85,24.11,-17.09
4,-7,9,-0.35,-0.04,0.23,-60.85,24.11,-17.09
4,-7,9,-0.3,-0.03,0.2,-66.28,34.18,-18.25
4,-8,9,-0.24,-0.02,0.14,-64.7,42.72,-18.74
4,-8,9,-0.23,-0.02,0.08,-58.23,51.39,-18.37
4,-8,9,-0.22,-0.03,0.01,-53.22,60.24,-17.76
4,-8,8,-0.22,-0.03,0.01,-53.22,60.24,-17.76
4,-8,8,-0.21,-0.06,-0.04,-50.29,70.37,-16.66
4,-8,8,-0.17,-0.11,-0.09,-48.46,79.41,-15.87
4,-8,8,-0.16,-0.11,-0.13,-45.04,82.82,-15.81
5,-8,8,-0.2,-0.14,-0.18,-35.34,77.09,-13.55
5,-8,8,-0.2,-0.14,-0.18,-20.87,66.04,-12.94
5,-8,8,-0.33,-0.29,-0.26,-20.87,66.04,-12.94
5,-7,8,-0.73,-0.54,-0.53,-10.99,59.2,-13
5,-7,8,-1.29,-0.77,-1.01,-2.5,62.38,-10.01
5,-7,8,-1.28,-0.8,-1.25,2.5,60.55,-3.23
5,-7,9,-1.46,-0.59,-1.58,-15.63,-8,10.8
5,-7,9,-1.46,-0.59,-1.58,-15.63,-8,10.8
5,-7,9,-1.61,0.21,-1.57,-37.54,-136.35,27.77
5,-6,9,-2.56,1.18,-0.47,-25.33,-267.52,32.71
5,-6,9,-2.86,2.1,2.55,49.68,-397.03,21.61
5,-6,9,-4,0.49,4,196.11,-471.44,8.91
5,-6,9,-4,0.49,4,196.11,-471.44,8.91
5,-6,9,-2.86,0.07,1.55,120.3,-164.25,-12.45
5,-6,9,-1.44,0.25,0.3,-9.89,67.02,-29.3
5,-6,9,-1.21,0.24,-0.48,-45.65,74.71,-15.69
5,-6,9,-1.09,0.08,-0.52,-15.38,56.52,-0.18
5,-6,9,-1.09,0.08,-0.52,-15.38,56.52,-0.18
5,-6,9,-1.03,-0.23,-0.25,11.78,35.95,11.66
5,-6,9,-1.07,-0.35,-0.17,13.18,19.04,20.2
5,-6,9,-1.07,-0.26,-0.14,12.27,7.63,24.35
5,-6,9,-1.04,-0.11,0.01,6.35,1.59,24.11
5,-6,9,-1.04,-0.11,0.01,6.35,1.59,24.11
5,-6,9,-0.99,-0.02,0.07,-0.73,-0.73,20.75
5,-6,9,-0.95,0.06,0.08,-1.53,2.5,18.55
5,-6,9,-0.89,0.1,0.08,4.46,10.25,19.04
5,-6,9,-0.89,0.1,0.08,11.23,14.28,19.78
5,-6,9,-0.79,0.17,0.06,11.23,14.28,19.78
5,-6,9,-0.69,0.19,0.06,19.47,17.52,19.78
5,-6,9,-0.57,0.18,0.07,25.76,24.6,17.4
5,-6,9,-0.42,0.13,0.04,27.59,31.92,14.53
4,-6,9,-0.42,0.13,0.04,27.59,31.92,14.53
4,-6,9,-0.33,0.12,0.06,29.36,40.95,12.02
4,-6,9,-0.22,0.09,0.03,28.56,46.33,8.48
4,-6,9,-0.12,0.01,-0.03,25.02,44.92,5.62
4,-6,9,-0.12,0.01,-0.03,25.39,43.46,5
4,-6,9,-0.18,-0.01,-0.01,25.39,43.46,5
4,-6,9,-0.14,-0.06,-0.02,24.96,43.58,1.59
4,-6,9,-0.13,-0.1,-0.05,20.2,42.6,2.26
4,-6,9,-0.14,-0.18,-0.09,18.8,42.48,4.52
4,-6,9,-0.14,-0.18,-0.09,18.8,42.48,4.52
4,-6,9,-0.17,-0.27,-0.13,15.38,38.57,3.54
4,-6,9,-0.26,-0.33,-0.25,3.85,34.61,2.93
4,-6,9,-0.49,-0.5,-0.34,0.18,30.7,4.94
4,-6,9,-0.91,-0.74,-0.64,-4.33,27.59,5.74
4,-5,9,-0.91,-0.74,-0.64,-4.33,27.59,5.74
4,-5,9,-1.35,-0.83,-1.06,-14.04,24.78,5.49
4,-5,9,-1.63,-0.41,-1.4,-14.65,-3.54,8.12
4,-5,10,-1.93,-0.19,-0.49,9.7,-83.19,15.08
4,-5,10,-3.09,-0.8,2.91,65.92,-226.01,10.86
4,-5,10,-3.09,-0.8,2.91,46.14,-225.52,-0.18
4,-5,10,-4,-0.97,3.12,46.14,-225.52,-0.18
4,-5,10,-2.6,-0.48,0.52,-34.79,5.8,-30.33
4,-5,10,-1.89,0,-0.17,-65.67,88.01,-37.17
4,-5,10,-1.53,0.19,-0.06,-46.94,51.51,-25.33
4,-5,10,-1.53,0.19,-0.06,-21.91,44.74,-16.36
4,-5,10,-1.27,0.05,0.15,-21.91,44.74,-16.36
4,-5,10,-1.13,-0.19,0.16,-11.54,57.31,-13.61
4,-5,10,-0.92,-0.39,0,-20.69,51.76,-14.28
4,-5,10,-0.79,-0.42,0,-29.17,37.84,-12.88
4,-5,10,-0.79,-0.42,0,-38.21,22.89,-10.5
4,-5,10,-0.73,-0.32,0.04,-38.21,22.89,-10.5
4,-5,10,-0.66,-0.19,0.05,-40.53,10.44,-8.18
4,-5,9,-0.6,-0.13,0.05,-37.72,7.69,-7.14
4,-5,9,-0.55,-0.05,0.05,-31.19,10.19,-7.02
4,-5,9,-0.46,-0.01,0.06,-23.93,15.69,-7.51
4,-5,9,-0.46,-0.01,0.06,-23.93,15.69,-7.51
4,-5,9,-0.4,-0.1,0.08,-20.02,20.45,-7.08
5,-5,9,-0.36,-0.14,0.1,-25.33,22.89,-6.53
5,-5,9,-0.29,-0.11,0.13,-36.44,22.03,-6.77
5,-5,9,-0.28,-0.12,0.13,-46.14,21.48,-6.9
5,-5,9,-0.28,-0.12,0.13,-46.14,21.48,-6.9
5,-6,9,-0.27,-0.07,0.12,-53.65,24.48,-6.96
5,-6,8,-0.22,-0.06,0.11,-52.98,26.73,-6.9
5,-6,7,-0.24,-0.08,0.06,-49.01,28.93,-7.57
5,-6,7,-0.26,-0.07,0,-46.94,33.51,-7.26
5,-6,7,-0.26,-0.07,0,-47.36,40.89,-7.75
6,-6,7,-0.26,-0.1,-0.03,-47.36,40.89,-7.75
7,-6,7,-0.25,-0.08,-0.08,-48.1,49.32,-7.63
8,-6,7,-0.28,-0.08,-0.09,-40.04,56.76,-5.55
9,-6,7,-0.38,-0.28,-0.1,-28.14,57.86,-3.42
9,-6,7,-0.6,-0.48,-0.24,-33.81,54.87,-1.59
9,-6,7,-0.6,-0.48,-0.24,-33.81,54.87,-1.59
9,-6,7,-1.1,-0.73,-0.53,-41.81,40.89,5.07
9,-5,7,-1.4,-0.58,-0.9,-44.74,12.57,15.01
9,-5,7,-1.71,0.07,-1.27,-53.28,-38.02,28.14
9,-5,7,-1.77,0.89,-1.28,-47.49,-119.81,35.22
9,-5,7,-1.77,0.89,-1.28,11.35,-209.47,31.01
9,-5,7,-1.93,1.21,-0.13,11.35,-209.47,31.01
9,-5,7,-2.75,0.96,1.76,103.27,-306.46,21.67
9,-5,7,-3.92,0.25,2.91,152.59,-318.12,3.3
9,-5,7,-2.81,-0.13,1.65,76.42,-103.82,-16.97
9,-5,7,-2.81,-0.13,1.65,76.42,-103.82,-16.97
9,-5,7,-1.71,0.12,0.26,-21.18,67.87,-24.6
9,-5,7,-1.35,0.27,-0.43,-48.1,74.65,-13.73
9,-5,7,-1.27,0.15,-0.37,-23.56,42.91,0.85
9,-5,7,-1.21,0,-0.19,-4.15,17.03,11.17
9,-5,7,-1.21,0,-0.19,-4.15,17.03,11.17
9,-5,7,-1.13,-0.08,-0.1,3.66,8.24,18.98
9,-5,7,-1.02,-0.06,-0.02,7.08,4.46,23.13
9,-5,7,-0.98,-0.05,0.11,4.64,-1.22,23.5
9,-5,7,-0.91,-0.02,0.12,-2.44,-4.27,20.51
9,-5,7,-0.91,-0.02,0.12,-10.19,0.24,17.94
8,-5,7,-0.82,0.01,0.11,-10.19,0.24,17.94
8,-5,7,-0.68,0.02,0.15,-14.4,7.26,16.05
8,-5,7,-0.59,0.08,0.1,-14.28,14.04,15.08
7,-5,7,-0.46,0.04,0.09,-10.31,18.25,14.53
7,-5,7,-0.46,0.04,0.09,-10.31,18.25,14.53
7,-5,7,-0.44,0.1,0.13,-3.72,26.12,15.14
6,-5,7,-0.34,0.06,0.12,2.62,37.41,12.94
6,-6,7,-0.23,0,0.11,6.16,44.92,10.13
6,-6,7,-0.23,0,0.11,6.16,44.92,10.13
6,-6,7,-0.16,-0.07,0.1,8.42,48.83,7.75
6,-6,7,-0.12,-0.07,0.08,6.9,48.89,7.2
6,-6,7,-0.13,-0.1,0.09,5.49,44.92,5.55
6,-6,7,-0.16,-0.18,0.06,-0.61,39.61,4.39
6,-6,7,-0.16,-0.18,0.06,-0.61,39.61,4.39
6,-6,7,-0.19,-0.23,-0.01,-9.7,36.32,3.6
6,-6,7,-0.26,-0.31,-0.1,-18.86,36.68,3.85
6,-6,7,-0.37,-0.48,-0.23,-24.66,37.6,4.7
6,-6,7,-0.58,-0.73,-0.46,-31.19,36.01,5.43
6,-6,7,-0.58,-0.73,-0.46,-31.19,36.01,5.43
6,-6,7,-1.01,-0.9,-0.87,-39.98,27.22,6.23
7,-6,7,-1.3,-0.77,-1.22,-42.05,4.15,8.79
7,-6,7,-1.49,-0.43,-1.37,-36.13,-43.88,15.56
7,-6,7,-1.39,0.02,-0.55,-9.16,-126.71,19.96
7,-6,7,-1.39,0.02,-0.55,-9.16,-126.71,19.96
7,-6,7,-2.14,0.13,1.3,30.03,-248.17,19.23
7,-6,7,-3.68,-0.2,3.01,39.12,-331.18,8.54
7,-6,7,-3.19,-0.17,1.46,-32.65,-162.6,-14.59
7,-6,7,-2.02,-0.03,0.25,-68.3,36.8,-32.71
7,-6,7,-2.02,-0.03,0.25,-68.3,36.8,-32.71
7,-6,7,-1.47,0.04,-0.36,-70.86,69.89,-23.74
7,-6,7,-1.34,-0.09,-0.45,-44.62,44.74,-13.31
7,-6,7,-1.23,-0.31,-0.25,-19.84,26.98,-7.69
7,-6,7,-1.09,-0.48,-0.13,-15.2,16.17,-5.13
7,-6,7,-1.09,-0.48,-0.13,-22.64,6.77,-2.69
7,-6,7,-1.06,-0.57,-0.11,-22.64,6.77,-2.69
7,-6,7,-1.03,-0.55,-0.01,-28.69,4.21,1.77
7,-6,7,-1,-0.54,0.06,-38.51,8.48,4.21
7,-6,7,-1.02,-0.48,0.12,-52.31,12.57,6.23
7,-6,7,-1.02,-0.48,0.12,-66.59,15.87,8.18
7,-6,7,-1.04,-0.39,0.11,-66.59,15.87,8.18
7,-6,7,-1.06,-0.27,0.07,-74.89,20.39,9.09
7,-6,7,-1,-0.23,0.06,-73.73,26,9.52
7,-6,6,-0.88,-0.19,0.01,-72.27,28.75,9.4
7,-6,6,-0.88,-0.19,0.01,-72.88,25.21,9.16
7,-6,6,-0.74,-0.16,-0.02,-72.88,25.21,9.16
8,-5,6,-0.61,-0.17,-0.05,-72.75,18.31,10.07
8,-5,6,-0.51,-0.16,-0.03,-73.73,11.84,12.21
8,-5,6,-0.43,-0.19,0,-77.94,7.2,13.43
8,-5,6,-0.43,-0.19,0,-84.17,6.84,13.85
8,-5,6,-0.36,-0.19,0.03,-84.17,6.84,13.85
8,-5,6,-0.32,-0.19,0.05,-90.15,8.12,14.34
9,-5,6,-0.31,-0.18,0.05,-94.54,13.06,13.85
9,-5,6,-0.29,-0.21,0.05,-98.39,23.01,12.51
9,-5,5,-0.29,-0.21,0.05,-106.2,33.39,11.47
9,-5,5,-0.28,-0.22,0.02,-106.2,33.39,11.47
9,-5,5,-0.32,-0.25,-0.06,-113.95,39.98,10.99
9,-5,5,-0.42,-0.35,-0.15,-115.05,42.97,12.21
9,-5,5,-0.69,-0.59,-0.24,-110.47,41.32,15.32
10,-5,5,-1.29,-0.89,-0.59,-118.1,36.62,21
10,-4,6,-1.29,-0.89,-0.59,-118.1,36.62,21
11,-4,6,-1.73,-0.65,-1.11,-137.94,26.12,27.59
11,-4,6,-2.3,0.46,-1.7,-154.79,-13.92,39.06
11,-4,6,-2.2,1.5,-1.08,-131.53,-96.56,42.05
11,-4,6,-2.77,1.82,1.03,-33.75,-235.66,38.57
11,-4,6,-2.77,1.82,1.03,-33.75,-235.66,38.57
11,-4,6,-4,1.06,3.62,44.43,-303.22,32.71
11,-4,6,-3.47,0.18,1.38,-23.19,-71.47,-1.65
10,-4,6,-1.9,0.11,-0.21,-112.92,112.43,-20.94
10,-4,6,-1.35,0.22,-0.52,-108.22,107.54,-4.76
10,-4,6,-1.35,0.22,-0.52,-108.22,107.54,-4.76
10,-4,6,-1.4,0.04,-0.23,-82.4,43.21,16.66
10,-4,6,-1.54,-0.03,-0.06,-86.61,0.37,26.61
10,-4,6,-1.53,-0.08,-0.14,-95.83,-12.39,30.15
10,-4,6,-1.42,-0.02,-0.08,-96.62,-17.15,35.16
10,-4,6,-1.42,-0.02,-0.08,-96.62,-17.15,35.16
10,-4,6,-1.39,0.01,0.08,-93.38,-23.32,40.22
10,-4,6,-1.34,0.02,0.15,-95.89,-29.42,42.11
10,-4,6,-1.35,0.05,0.19,-102.6,-29.72,42.6
9,-4,6,-1.29,0.09,0.2,-114.2,-21.91,41.44
8,-4,6,-1.29,0.09,0.2,-114.2,-21.91,41.44
8,-4,6,-1.19,0.11,0.14,-124.51,-12.15,40.34
7,-4,6,-1.07,0.17,0.12,-127.38,-5.43,40.16
7,-4,6,-0.92,0.17,0.1,-124.21,-3.17,40.1
6,-4,6,-0.83,0.2,0.08,-121.03,-5.13,40.28
6,-4,6,-0.83,0.2,0.08,-121.03,-5.13,40.28
6,-5,6,-0.77,0.22,0.09,-115.48,-5.13,39.49
6,-5,6,-0.69,0.18,0.11,-107.85,-2.93,38.94
5,-6,6,-0.59,0.18,0.11,-101.14,2.2,40.04
5,-6,6,-0.5,0.12,0.13,-94.06,4.94,41.93
5,-6,6,-0.5,0.12,0.13,-94.06,4.94,41.93
5,-6,7,-0.46,0.1,0.16,-89.05,1.71,43.76
4,-6,7,-0.4,0.08,0.17,-88.32,-0.85,44.98
3,-7,7,-0.33,0.05,0.18,-89.66,1.16,44.31
2,-7,7,-0.33,0.05,0.18,-91.06,6.59,43.21
2,-7,8,-0.28,0.01,0.16,-91.06,6.59,43.21
2,-7,8,-0.24,-0.02,0.15,-92.04,15.5,42.97
2,-7,8,-0.23,-0.06,0.13,-92.1,25.63,42.91
2,-7,8,-0.24,-0.12,0.09,-91.19,33.81,43.7
2,-7,8,-0.24,-0.12,0.09,-87.65,39.98,45.17
2,-7,8,-0.24,-0.18,0.07,-87.65,39.98,45.17
2,-7,8,-0.37,-0.29,0.03,-82.28,44.56,46.14
2,-7,8,-0.71,-0.59,-0.14,-82.64,48.58,44.98
2,-7,8,-1.56,-0.88,-0.68,-96.13,54.14,42.18
2,-7,8,-1.56,-0.88,-0.68,-80.51,60.12,44.25
2,-7,8,-2.43,-1.11,-1.48,-80.51,60.12,44.25
2,-7,8,-2.04,-0.8,-1.49,-36.44,69.34,53.04
2,-7,8,-1.1,-0.69,-0.35,2.26,1.77,59.51
2,-7,8,-1.47,-0.52,1.57,-24.9,-206.73,49.93
3,-7,8,-1.47,-0.52,1.57,-142.27,-391.3,37.41
3,-7,8,-3.19,-0.11,2.9,-142.27,-391.3,37.41
3,-7,7,-3.51,-0.29,2.32,-161.07,-280.88,6.77
3,-7,7,-1.85,-0.11,0.71,-179.63,28.87,-15.2
3,-7,7,-1.14,-0.03,-0.38,-207.89,108.76,-7.26
3,-7,7,-1.14,-0.03,-0.38,-189.39,69.03,12.08
3,-7,7,-1.15,0.16,-0.67,-189.39,69.03,12.08
3,-7,7,-1.13,0.12,-0.38,-155.64,35.46,24.72
3,-7,7,-1.12,0,-0.13,-136.84,16.54,32.1
3,-7,7,-1.11,0.04,-0.16,-142.27,0.73,34.42
3,-7,7,-1.11,0.04,-0.16,-146.55,-13.67,34.36
3,-7,7,-1.17,0.14,-0.19,-146.55,-13.67,34.36
2,-7,7,-1.14,0.24,-0.19,-141.05,-23.01,33.51
2,-7,7,-1.11,0.23,-0.19,-129.58,-30.64,30.27
2,-7,7,-1.13,0.17,-0.13,-120.97,-36.32,26.18
2,-7,7,-1.13,0.11,-0.11,-111.51,-39.55,23.99
2,-7,7,-1.13,0.11,-0.11,-111.51,-39.55,23.99
1,-6,7,-1.15,0.07,-0.06,-103.27,-43.58,23.01
1,-6,6,-1.18,-0.02,0.03,-94.54,-45.29,21.85
1,-6,4,-1.2,-0.12,0.11,-91.92,-43.27,20.2
1,-6,2,-1.16,-0.11,0.1,-94.6,-36.44,18.19
1,-6,0,-1.16,-0.11,0.1,-94.6,-36.44,18.19
1,-6,-3,-1.13,-0.21,0.11,-96.44,-27.4,14.77
1,-6,-4,-1.07,-0.15,0.08,-101.62,-19.47,10.13
1,-6,-4,-0.95,-0.17,0.09,-106.45,-8.61,5.07
2,-6,-5,-0.9,-0.15,0.06,-114.38,-2.26,0.12
2,-6,-5,-0.9,-0.15,0.06,-123.66,-1.1,-3.97
2,-6,-5,-0.81,-0.13,0.02,-123.66,-1.1,-3.97
2,-5,-5,-0.78,-0.11,-0.03,-130.07,-0.73,-7.93
2,-5,-5,-0.76,-0.13,-0.07,-129.94,2.2,-10.99
3,-5,-5,-0.71,-0.18,-0.08,-125.92,5.86,-13
4,-5,-5,-0.67,-0.15,-0.08,-125.37,6.9,-14.53
4,-5,-5,-0.67,-0.15,-0.08,-127.08,4.52,-16.3
5,-4,-5,-0.61,-0.12,-0.07,-127.08,4.52,-16.3
5,-4,-5,-0.53,-0.09,-0.06,-127.87,2.81,-17.4
6,-4,-5,-0.42,-0.06,-0.02,-131.16,5.92,-17.88
6,-4,-4,-0.35,-0.04,0,-138.37,9.52,-17.58
6,-4,-4,-0.28,-0.05,-0.01,-147.28,11.47,-16.17
