roll,pitch,yaw,ax,ay,az,gx,gy,gz
31,27,41,-0.82,-0.49,-0.42,-0.55,-0.18,0.37
31,27,41,-0.82,-0.49,-0.42,-0.55,-0.18,0.37
31,27,41,-0.82,-0.49,-0.42,-0.55,-0.18,0.37
31,27,41,-0.82,-0.49,-0.42,-0.43,-0.06,0.12
31,27,41,-0.82,-0.49,-0.42,-0.43,-0.12,0.37
31,27,41,-0.82,-0.49,-0.42,-0.37,-0.18,0.18
31,27,41,-0.82,-0.49,-0.42,-0.43,-0.06,0.31
31,27,41,-0.82,-0.49,-0.42,-0.43,-0.06,0.31
31,27,41,-0.82,-0.49,-0.42,-0.55,-0.12,0.37
31,27,41,-0.82,-0.49,-0.42,-0.67,-0.18,0.31
31,27,41,-0.82,-0.48,-0.42,-0.92,-0.31,0.24
31,27,41,-0.82,-0.48,-0.42,-0.92,-0.31,0.37
31,27,41,-0.82,-0.48,-0.42,-0.92,-0.31,0.37
31,27,41,-0.82,-0.48,-0.42,-0.92,-0.31,0.49
31,27,41,-0.82,-0.48,-0.42,-1.04,-0.12,0.49
31,27,41,-0.82,-0.48,-0.42,-1.1,-0.12,0.49
31,27,41,-0.82,-0.49,-0.42,-1.1,-0.18,0.37
31,27,41,-0.82,-0.49,-0.42,-1.1,-0.18,0.37
31,27,41,-0.82,-0.49,-0.42,-0.92,-0.06,0.24
31,27,41,-0.82,-0.49,-0.42,-0.85,-0.06,0.55
31,27,41,-0.82,-0.49,-0.42,-0.98,-0.31,0.49
31,27,41,-0.82,-0.49,-0.42,-1.16,-0.12,0.43
31,27,41,-0.82,-0.49,-0.42,-1.28,-0.24,0.37
31,27,41,-0.82,-0.49,-0.42,-1.28,-0.24,0.37
31,27,41,-0.82,-0.49,-0.42,-1.28,-0.31,0.31
31,27,41,-0.82,-0.48,-0.42,-1.28,-0.31,0.12
31,27,41,-0.82,-0.48,-0.42,-0.85,-0.43,0.24
31,27,41,-0.82,-0.48,-0.42,-0.79,-0.49,0.37
31,27,41,-0.82,-0.49,-0.42,-0.79,-0.49,0.37
31,27,41,-0.82,-0.49,-0.42,-0.85,-0.31,0.49
31,27,41,-0.82,-0.49,-0.42,-0.55,-0.43,0.49
31,27,41,-0.82,-0.49,-0.42,-0.73,-0.37,0.43
31,27,41,-0.82,-0.49,-0.42,-1.1,-0.12,0.24
31,27,41,-0.82,-0.49,-0.42,-1.1,-0.12,0.24
31,27,41,-0.82,-0.49,-0.42,-0.92,-0.12,0.31
31,27,41,-0.82,-0.49,-0.42,-0.79,-0.18,0.37
31,27,41,-0.82,-0.49,-0.42,-0.85,-0.24,0.55
31,27,41,-0.82,-0.49,-0.42,-0.79,-0.06,0.49
31,27,41,-0.82,-0.49,-0.42,-0.79,-0.06,0.49
31,27,41,-0.82,-0.49,-0.42,-0.61,0,0.43
31,27,41,-0.82,-0.49,-0.42,-0.61,0,0.31
31,27,41,-0.82,-0.49,-0.42,-0.61,-0.06,0.49
31,27,41,-0.82,-0.49,-0.42,-0.67,0,0.49
31,27,41,-0.82,-0.49,-0.42,-0.67,0,0.49
31,27,41,-0.82,-0.49,-0.42,-0.73,-0.06,0.43
31,27,41,-0.82,-0.49,-0.42,-0.67,-0.06,0.37
31,27,41,-0.82,-0.49,-0.42,-0.73,0,0.31
31,27,41,-0.82,-0.49,-0.42,-0.73,-0.06,0.37
31,27,41,-0.82,-0.49,-0.42,-0.67,-0.18,0.55
31,27,41,-0.82,-0.49,-0.42,-0.67,-0.18,0.55
31,27,41,-0.82,-0.48,-0.42,-0.55,-0.31,0.55
31,27,41,-0.82,-0.48,-0.42,-0.55,-0.18,0.55
31,27,41,-0.82,-0.48,-0.41,-0.49,-0.18,0.55
31,27,41,-0.82,-0.49,-0.41,-0.55,0,0.55
31,27,41,-0.82,-0.49,-0.41,-0.55,0,0.55
31,27,41,-0.82,-0.49,-0.42,-0.55,-0.12,0.49
31,27,41,-0.82,-0.49,-0.41,-0.55,-0.31,0.67
31,27,41,-0.82,-0.49,-0.41,-0.55,-0.12,0.55
31,27,41,-0.82,-0.49,-0.42,-0.73,-0.18,0.61
31,27,41,-0.82,-0.49,-0.42,-0.73,-0.18,0.61
31,27,41,-0.82,-0.49,-0.42,-0.67,-0.12,0.67
31,27,41,-0.82,-0.49,-0.41,-0.67,0.06,0.85
31,27,41,-0.82,-0.49,-0.42,-0.43,-0.12,0.55
31,27,41,-0.82,-0.49,-0.42,-0.31,-0.24,0.79
31,27,41,-0.82,-0.49,-0.42,-0.31,-0.24,0.79
31,27,41,-0.82,-0.49,-0.42,-0.43,-0.12,0.67
31,27,41,-0.82,-0.49,-0.42,-0.24,-0.43,0.73
31,27,41,-0.82,-0.49,-0.42,-0.55,-0.49,0.79
31,27,41,-0.82,-0.49,-0.41,-0.49,-0.43,0.55
31,27,40,-0.82,-0.49,-0.41,-0.55,-0.55,0.67
31,27,40,-0.82,-0.49,-0.41,-0.55,-0.55,0.67
31,27,41,-0.82,-0.49,-0.42,-0.31,-0.61,0.79
31,27,41,-0.82,-0.49,-0.42,-0.18,-0.73,0.67
31,27,41,-0.82,-0.49,-0.42,-0.18,-0.61,0.73
31,27,41,-0.82,-0.49,-0.42,-0.37,-0.67,0.92
31,27,41,-0.82,-0.49,-0.42,-0.37,-0.67,0.92
31,27,41,-0.82,-0.49,-0.42,-0.37,-0.73,0.79
31,27,41,-0.82,-0.49,-0.42,-0.43,-0.85,0.61
31,27,41,-0.82,-0.49,-0.42,-0.49,-0.67,0.67
31,27,41,-0.82,-0.49,-0.42,-0.37,-0.49,0.85
31,27,41,-0.82,-0.49,-0.42,-0.37,-0.49,0.85
31,27,40,-0.82,-0.49,-0.41,-0.24,-0.55,0.67
31,27,40,-0.82,-0.49,-0.41,-0.24,-0.49,0.61
31,27,40,-0.82,-0.48,-0.42,-0.12,-0.67,0.37
31,27,41,-0.82,-0.48,-0.42,0.06,-0.79,0.49
31,27,41,-0.82,-0.48,-0.42,0.24,-0.73,0.61
31,27,41,-0.82,-0.48,-0.42,0.24,-0.73,0.61
31,27,41,-0.82,-0.48,-0.42,0.06,-0.49,0.61
31,27,41,-0.82,-0.49,-0.42,0.06,-0.49,0.49
31,27,41,-0.82,-0.49,-0.42,0.06,-0.43,0.61
31,27,41,-0.82,-0.49,-0.42,0.12,-0.61,0.49
31,27,41,-0.82,-0.49,-0.42,0.12,-0.61,0.49
31,27,41,-0.82,-0.49,-0.42,0.12,-0.55,0.61
31,27,41,-0.82,-0.49,-0.42,0,-0.55,0.43
31,27,41,-0.82,-0.49,-0.42,-0.37,-0.55,0.49
31,27,41,-0.82,-0.49,-0.42,-0.37,-0.55,0.49
31,27,41,-0.82,-0.49,-0.42,-0.49,-0.61,0.49
31,27,41,-0.82,-0.48,-0.42,-0.55,-0.73,0.43
31,27,41,-0.82,-0.48,-0.42,-0.61,-0.79,0.31
31,27,41,-0.82,-0.48,-0.42,-0.43,-0.79,0.43
31,27,41,-0.82,-0.48,-0.42,-0.18,-0.55,0.49
31,27,41,-0.82,-0.48,-0.42,-0.18,-0.55,0.49
31,27,41,-0.82,-0.48,-0.42,-0.12,-0.49,0.61
31,27,41,-0.82,-0.49,-0.42,0.12,-0.55,0.49
31,27,41,-0.82,-0.49,-0.42,0.12,-0.61,0.55
31,27,41,-0.82,-0.49,-0.42,0,-0.67,0.37
31,27,41,-0.82,-0.49,-0.42,0,-0.67,0.37
31,27,41,-0.82,-0.49,-0.42,-0.06,-0.55,0.49
31,27,41,-0.82,-0.49,-0.42,-0.06,-0.55,0.55
31,27,41,-0.82,-0.49,-0.42,-0.06,-0.79,0.37
31,27,41,-0.82,-0.49,-0.42,0,-0.79,0.43
31,27,41,-0.82,-0.49,-0.42,0,-0.79,0.43
31,27,41,-0.82,-0.49,-0.42,0,-0.73,0.55
31,27,41,-0.82,-0.49,-0.42,0,-0.85,0.37
31,27,41,-0.82,-0.49,-0.42,-0.18,-0.79,0.55
31,27,41,-0.82,-0.49,-0.42,-0.18,-0.79,0.55
31,27,41,-0.82,-0.49,-0.42,-0.31,-0.61,0.61
31,27,41,-0.82,-0.49,-0.42,-0.12,-0.61,0.43
31,27,41,-0.82,-0.49,-0.42,-0.12,-0.73,0.61
31,27,41,-0.82,-0.49,-0.42,-0.24,-0.67,0.49
31,27,41,-0.82,-0.49,-0.42,-0.24,-0.67,0.49
31,27,41,-0.82,-0.48,-0.42,-0.31,-0.79,0.37
31,27,41,-0.82,-0.48,-0.42,-0.31,-0.73,0.55
31,27,41,-0.82,-0.48,-0.42,-0.24,-0.61,0.43
31,27,41,-0.82,-0.48,-0.42,-0.24,-0.49,0.55
31,27,41,-0.82,-0.49,-0.42,-0.12,-0.67,0.49
31,27,41,-0.82,-0.49,-0.42,-0.12,-0.67,0.49
31,27,41,-0.82,-0.49,-0.42,0,-0.55,0.55
31,27,41,-0.82,-0.49,-0.42,-0.12,-0.49,0.37
31,27,41,-0.82,-0.49,-0.42,-0.49,-0.49,0.49
31,27,41,-0.82,-0.49,-0.42,-0.61,-0.31,0.49
31,27,41,-0.82,-0.49,-0.42,-0.61,-0.31,0.49
31,27,41,-0.82,-0.49,-0.42,-0.61,-0.31,0.55
31,27,41,-0.82,-0.49,-0.42,-0.67,-0.43,0.37
31,27,41,-0.82,-0.49,-0.42,-0.55,-0.67,0.43
31,27,41,-0.82,-0.49,-0.42,-0.55,-0.55,0.31
31,27,41,-0.82,-0.49,-0.42,-0.55,-0.55,0.31
31,27,41,-0.82,-0.49,-0.42,-0.37,-0.55,0.43
31,27,41,-0.82,-0.49,-0.42,-0.37,-0.61,0.61
31,27,41,-0.82,-0.49,-0.42,-0.49,-0.67,0.49
31,27,41,-0.82,-0.49,-0.42,-0.55,-0.61,0.43
31,27,41,-0.82,-0.49,-0.42,-0.55,-0.61,0.43
31,27,41,-0.82,-0.49,-0.42,-0.61,-0.73,0.49
31,27,41,-0.82,-0.49,-0.42,-0.73,-0.55,0.43
31,27,41,-0.82,-0.49,-0.42,-0.55,-0.55,0.49
31,27,41,-0.82,-0.49,-0.42,-0.55,-0.49,0.55
31,27,41,-0.82,-0.49,-0.42,-0.67,-0.43,0.49
31,27,41,-0.82,-0.49,-0.42,-0.67,-0.43,0.49
31,27,41,-0.82,-0.49,-0.42,-0.73,-0.43,0.61
31,27,41,-0.82,-0.49,-0.42,-0.61,-0.43,0.61
31,27,41,-0.82,-0.49,-0.42,-0.43,-0.49,0.43
31,27,41,-0.82,-0.49,-0.42,-0.61,-0.31,0.55
31,27,41,-0.82,-0.49,-0.42,-0.61,-0.31,0.55
31,27,41,-0.82,-0.49,-0.42,-0.43,-0.43,0.55
31,27,41,-0.82,-0.49,-0.42,-0.55,-0.43,0.37
31,27,41,-0.82,-0.49,-0.42,-0.49,-0.43,0.49
31,27,41,-0.82,-0.49,-0.42,-0.61,-0.43,0.37
31,27,41,-0.82,-0.49,-0.42,-0.61,-0.43,0.37
31,27,41,-0.82,-0.49,-0.42,-0.67,-0.43,0.31
31,27,41,-0.82,-0.49,-0.42,-0.79,-0.37,0.49
31,27,41,-0.82,-0.49,-0.42,-0.73,-0.37,0.37
31,27,41,-0.82,-0.49,-0.42,-0.61,-0.31,0.43
31,27,41,-0.82,-0.49,-0.42,-0.61,-0.31,0.43
31,27,41,-0.82,-0.49,-0.42,-0.67,-0.37,0.49
31,27,41,-0.82,-0.49,-0.42,-0.67,-0.37,0.49
31,27,41,-0.82,-0.49,-0.42,-0.85,-0.18,0.37
31,27,41,-0.82,-0.49,-0.42,-0.73,-0.24,0.43
31,27,41,-0.82,-0.49,-0.42,-0.73,-0.24,0.43
31,27,41,-0.82,-0.49,-0.42,-0.61,-0.18,0.31
31,27,41,-0.82,-0.49,-0.42,-0.61,-0.24,0.55
31,27,41,-0.82,-0.49,-0.42,-0.61,-0.37,0.49
31,27,41,-0.82,-0.49,-0.42,-0.67,-0.31,0.43
31,27,41,-0.82,-0.49,-0.42,-0.79,-0.37,0.37
31,27,41,-0.82,-0.48,-0.42,-0.79,-0.37,0.37
31,27,41,-0.82,-0.49,-0.42,-0.55,-0.31,0.49
31,27,41,-0.82,-0.49,-0.42,-0.43,-0.31,0.55
31,27,41,-0.82,-0.49,-0.42,-0.49,-0.31,0.49
31,27,41,-0.82,-0.49,-0.42,-0.49,-0.49,0.43
31,27,41,-0.82,-0.49,-0.42,-0.49,-0.49,0.43
31,27,41,-0.82,-0.49,-0.42,-0.55,-0.43,0.24
31,27,41,-0.82,-0.49,-0.42,-0.55,-0.37,0.55
31,27,41,-0.82,-0.49,-0.42,-0.55,-0.18,0.49
31,27,41,-0.82,-0.49,-0.42,-0.67,-0.31,0.55
31,27,41,-0.82,-0.49,-0.42,-0.67,-0.31,0.55
31,27,41,-0.82,-0.48,-0.42,-0.73,-0.49,0.55
31,27,41,-0.82,-0.48,-0.42,-0.61,-0.49,0.55
31,27,41,-0.82,-0.48,-0.42,-0.49,-0.49,0.55
31,27,41,-0.82,-0.48,-0.42,-0.49,-0.61,0.61
31,27,41,-0.82,-0.48,-0.42,-0.49,-0.61,0.61
31,27,41,-0.82,-0.48,-0.42,-0.49,-0.67,0.79
31,27,41,-0.82,-0.49,-0.42,-0.43,-0.55,0.73
31,27,41,-0.82,-0.49,-0.42,-0.37,-0.37,0.61
31,27,41,-0.82,-0.49,-0.42,-0.37,-0.24,0.61
31,27,41,-0.82,-0.49,-0.42,-0.67,-0.55,0.43
31,27,41,-0.82,-0.49,-0.42,-0.67,-0.55,0.43
31,27,41,-0.82,-0.49,-0.42,-0.73,-0.31,0.24
31,27,41,-0.82,-0.49,-0.42,-0.73,-0.31,0.31
31,27,41,-0.82,-0.48,-0.42,-0.73,-0.43,0.31
31,27,41,-0.82,-0.48,-0.42,-0.49,-0.37,0.49
31,27,41,-0.82,-0.48,-0.42,-0.49,-0.37,0.49
31,27,41,-0.82,-0.48,-0.42,-0.37,-0.24,0.61
31,27,41,-0.82,-0.48,-0.42,-0.31,-0.06,0.49
31,27,41,-0.82,-0.49,-0.42,-0.24,-0.12,0.43
31,27,41,-0.82,-0.49,-0.42,-0.12,-0.24,0.43
31,27,41,-0.82,-0.49,-0.42,-0.31,-0.31,0.49
31,27,41,-0.82,-0.49,-0.42,-0.31,-0.31,0.49
31,27,41,-0.82,-0.49,-0.42,-0.55,-0.49,0.49
31,27,41,-0.82,-0.49,-0.42,-0.85,-0.43,0.55
31,27,41,-0.82,-0.49,-0.42,-0.92,-0.49,0.55
31,27,41,-0.82,-0.49,-0.42,-1.04,-0.55,0.61
31,27,41,-0.82,-0.49,-0.42,-1.04,-0.55,0.61
31,27,41,-0.82,-0.48,-0.42,-0.79,-0.55,0.61
31,27,41,-0.82,-0.48,-0.42,-0.61,-0.43,0.61
31,27,41,-0.82,-0.48,-0.42,-0.49,-0.37,0.49
31,27,41,-0.82,-0.49,-0.42,-0.61,-0.37,0.55
31,27,41,-0.82,-0.49,-0.42,-0.61,-0.37,0.55
31,27,41,-0.82,-0.48,-0.42,-0.67,-0.31,0.31
31,27,41,-0.82,-0.49,-0.42,-0.55,-0.49,0.43
31,27,41,-0.82,-0.49,-0.42,-0.43,-0.49,0.37
31,27,41,-0.82,-0.49,-0.42,-0.37,-0.43,0.43
31,27,41,-0.82,-0.49,-0.42,-0.37,-0.43,0.43
31,27,41,-0.82,-0.49,-0.42,-0.31,-0.24,0.61
31,27,41,-0.82,-0.49,-0.42,-0.18,-0.37,0.61
31,27,41,-0.82,-0.49,-0.42,-0.31,-0.31,0.31
31,27,41,-0.82,-0.49,-0.42,-0.12,-0.43,0.49
31,27,41,-0.82,-0.49,-0.42,0,-0.37,0.61
31,27,41,-0.82,-0.49,-0.42,0,-0.37,0.61
31,27,41,-0.82,-0.49,-0.42,-0.06,-0.43,0.43
31,27,41,-0.82,-0.49,-0.42,-0.18,-0.31,0.31
31,27,41,-0.82,-0.49,-0.42,-0.24,-0.31,0.49
31,27,41,-0.82,-0.49,-0.42,-0.37,-0.49,0.43
31,27,41,-0.82,-0.49,-0.42,-0.37,-0.49,0.43
31,27,41,-0.82,-0.48,-0.42,-0.43,-0.49,0.55
31,27,41,-0.82,-0.49,-0.42,-0.67,-0.49,0.61
31,27,41,-0.82,-0.48,-0.42,-0.67,-0.61,0.61
31,27,41,-0.82,-0.48,-0.42,-0.37,-0.55,0.61
31,27,41,-0.82,-0.48,-0.42,-0.37,-0.55,0.61
31,27,41,-0.82,-0.49,-0.42,-0.49,-0.55,0.67
31,27,41,-0.82,-0.49,-0.42,-0.61,-0.37,0.61
31,27,41,-0.82,-0.49,-0.42,-0.61,-0.18,0.61
31,27,41,-0.82,-0.49,-0.42,-0.73,-0.18,0.55
31,27,41,-0.82,-0.49,-0.42,-0.73,-0.18,0.55
31,27,41,-0.82,-0.49,-0.42,-0.73,-0.24,0.55
31,27,41,-0.82,-0.49,-0.42,-0.79,-0.24,0.55
31,27,41,-0.82,-0.49,-0.42,-0.67,-0.31,0.49
31,27,41,-0.82,-0.49,-0.42,-0.73,-0.43,0.37
31,27,41,-0.82,-0.49,-0.42,-0.73,-0.43,0.37
31,27,41,-0.82,-0.49,-0.42,-0.67,-0.24,0.49
31,27,41,-0.82,-0.49,-0.42,-0.61,-0.43,0.43
31,27,41,-0.82,-0.49,-0.42,-0.43,-0.37,0.37
31,27,41,-0.82,-0.49,-0.42,-0.37,-0.49,0.43
31,27,41,-0.82,-0.49,-0.42,-0.37,-0.49,0.43
31,27,41,-0.82,-0.49,-0.42,-0.49,-0.43,0.24
31,27,41,-0.82,-0.49,-0.42,-0.55,-0.24,0.31
31,27,41,-0.82,-0.49,-0.42,-0.61,-0.31,0.43
31,27,41,-0.82,-0.48,-0.42,-0.61,-0.43,0.43
31,27,41,-0.82,-0.48,-0.42,-0.67,-0.37,0.43
31,27,41,-0.82,-0.48,-0.42,-0.67,-0.37,0.43
31,27,41,-0.82,-0.49,-0.42,-0.73,-0.24,0.43
31,27,41,-0.82,-0.49,-0.42,-0.73,-0.37,0.49
31,27,41,-0.82,-0.49,-0.42,-0.37,-0.24,0.49
31,27,41,-0.82,-0.49,-0.42,-0.37,-0.24,0.49
31,27,41,-0.82,-0.49,-0.42,-0.37,-0.24,0.49
31,27,41,-0.82,-0.49,-0.42,-0.43,-0.24,0.37
31,27,41,-0.82,-0.49,-0.42,-0.49,-0.31,0.43
31,27,41,-0.82,-0.49,-0.42,-0.73,-0.12,0.49
31,27,41,-0.82,-0.49,-0.42,-0.73,-0.12,0.31
31,27,41,-0.82,-0.49,-0.42,-0.73,-0.12,0.31
31,27,41,-0.82,-0.49,-0.42,-0.92,-0.24,0.49
31,27,41,-0.82,-0.49,-0.42,-0.73,-0.37,0.55
31,27,41,-0.82,-0.49,-0.42,-0.73,-0.24,0.55
31,27,41,-0.82,-0.49,-0.42,-0.73,-0.18,0.49
31,27,41,-0.82,-0.49,-0.42,-0.73,-0.18,0.49
31,27,41,-0.82,-0.49,-0.42,-0.79,-0.12,0.55
31,27,41,-0.82,-0.49,-0.42,-0.61,-0.31,0.49
31,27,41,-0.82,-0.49,-0.42,-0.79,-0.37,0.37
31,27,41,-0.82,-0.49,-0.42,-0.92,-0.12,0.49
31,27,41,-0.82,-0.49,-0.42,-0.92,-0.12,0.49
31,27,41,-0.82,-0.49,-0.42,-0.85,-0.31,0.49
31,27,41,-0.82,-0.49,-0.42,-0.79,-0.24,0.55
31,27,41,-0.82,-0.49,-0.42,-0.73,-0.24,0.49
31,27,41,-0.82,-0.48,-0.42,-0.73,-0.12,0.37
31,27,41,-0.82,-0.48,-0.42,-0.73,-0.12,0.37
31,27,41,-0.82,-0.49,-0.42,-0.73,-0.12,0.31
31,27,41,-0.82,-0.48,-0.42,-0.31,-0.24,0.43
31,27,41,-0.82,-0.48,-0.42,-0.49,-0.31,0.43
31,27,41,-0.82,-0.49,-0.42,-0.61,-0.37,0.55
31,27,41,-0.82,-0.49,-0.42,-0.61,-0.37,0.55
31,27,41,-0.82,-0.49,-0.42,-0.61,-0.24,0.61
31,27,41,-0.82,-0.49,-0.42,-0.49,-0.24,0.49
31,27,41,-0.82,-0.49,-0.42,-0.49,-0.24,0.55
31,27,41,-0.82,-0.49,-0.42,-0.49,-0.18,0.67
31,27,41,-0.82,-0.49,-0.42,-0.49,-0.18,0.67
31,27,41,-0.82,-0.49,-0.42,-0.55,-0.18,0.55
31,27,41,-0.82,-0.49,-0.42,-0.61,0,0.55
31,27,41,-0.82,-0.49,-0.42,-0.61,-0.12,0.55
31,27,41,-0.82,-0.49,-0.42,-0.73,-0.12,0.43
31,27,41,-0.82,-0.49,-0.42,-0.67,-0.31,0.55
31,27,41,-0.82,-0.49,-0.42,-0.67,-0.31,0.55
31,27,41,-0.82,-0.49,-0.42,-0.61,-0.31,0.61
31,27,41,-0.82,-0.49,-0.42,-0.61,-0.24,0.73
31,27,41,-0.82,-0.49,-0.42,-0.55,-0.12,0.55
31,27,41,-0.82,-0.49,-0.42,-0.49,-0.12,0.55
31,27,41,-0.82,-0.48,-0.42,-0.49,-0.12,0.55
31,27,41,-0.82,-0.49,-0.42,-0.61,-0.18,0.43
31,27,41,-0.82,-0.49,-0.42,-0.43,-0.18,0.61
31,27,41,-0.82,-0.49,-0.42,-0.49,-0.06,0.61
31,27,41,-0.82,-0.49,-0.42,-0.55,-0.18,0.61
31,27,41,-0.82,-0.49,-0.42,-0.55,-0.18,0.61
31,27,41,-0.82,-0.49,-0.42,-0.67,-0.12,0.49
31,27,41,-0.82,-0.49,-0.42,-0.67,0,0.43
31,27,41,-0.82,-0.48,-0.42,-0.79,-0.06,0.31
31,27,41,-0.82,-0.48,-0.42,-0.73,-0.06,0.43
31,27,41,-0.82,-0.48,-0.42,-0.73,-0.06,0.43
31,27,41,-0.82,-0.48,-0.42,-0.49,0.18,0.61
31,27,41,-0.82,-0.48,-0.42,-0.49,0,0.55
31,27,41,-0.82,-0.49,-0.42,-0.31,-0.18,0.61
31,27,41,-0.83,-0.49,-0.42,-0.31,0,0.61
31,27,41,-0.83,-0.49,-0.42,-0.31,0,0.61
31,27,41,-0.82,-0.49,-0.42,-0.61,0.18,0.43
31,27,41,-0.82,-0.49,-0.42,-0.98,-0.06,0.55
31,27,41,-0.82,-0.49,-0.42,-1.16,0,0.55
31,27,41,-0.82,-0.49,-0.42,-1.16,0,0.55
31,27,41,-0.82,-0.49,-0.42,-1.16,0,0.55
31,27,41,-0.82,-0.49,-0.42,-1.22,-0.18,0.55
31,27,41,-0.82,-0.48,-0.42,-1.22,-0.49,0.43
31,27,41,-0.82,-0.48,-0.42,-1.22,-0.31,0.24
31,27,41,-0.82,-0.48,-0.42,-1.1,-0.31,0.31
31,27,41,-0.82,-0.48,-0.42,-1.1,-0.31,0.31
31,27,41,-0.82,-0.48,-0.42,-0.92,-0.43,0.55
31,27,41,-0.82,-0.49,-0.42,-0.73,-0.18,0.67
31,27,41,-0.82,-0.49,-0.42,-0.67,-0.12,0.49
31,27,41,-0.82,-0.49,-0.42,-0.92,-0.06,0.55
31,27,41,-0.82,-0.49,-0.42,-0.92,-0.06,0.55
31,27,41,-0.82,-0.49,-0.42,-0.85,0,0.18
31,27,41,-0.82,-0.49,-0.42,-0.73,-0.24,0.37
31,27,41,-0.82,-0.49,-0.42,-0.98,-0.06,0.43
31,27,41,-0.82,-0.49,-0.42,-0.98,-0.31,0.55
31,27,41,-0.82,-0.49,-0.42,-0.98,-0.31,0.55
31,27,41,-0.82,-0.49,-0.42,-0.79,-0.24,0.43
31,27,41,-0.82,-0.49,-0.42,-0.61,-0.12,0.43
31,27,41,-0.82,-0.49,-0.42,-0.49,-0.18,0.31
31,27,41,-0.82,-0.49,-0.42,-0.49,-0.31,0.55
31,27,41,-0.82,-0.49,-0.42,-0.49,-0.31,0.55
31,27,41,-0.82,-0.49,-0.42,-0.61,-0.55,0.55
31,27,41,-0.82,-0.49,-0.42,-0.67,-0.49,0.55
31,27,41,-0.82,-0.49,-0.42,-0.73,-0.43,0.61
31,27,41,-0.82,-0.49,-0.42,-0.73,-0.31,0.49
31,27,41,-0.82,-0.49,-0.42,-0.98,-0.43,0.31
31,27,41,-0.82,-0.49,-0.42,-0.98,-0.43,0.31
31,27,41,-0.82,-0.48,-0.42,-0.92,-0.43,0.43
31,27,41,-0.82,-0.48,-0.42,-0.98,-0.43,0.55
31,27,41,-0.82,-0.48,-0.42,-0.85,-0.37,0.55
31,27,41,-0.82,-0.49,-0.42,-0.85,-0.37,0.43
31,27,41,-0.82,-0.49,-0.42,-0.85,-0.37,0.43
31,27,41,-0.82,-0.49,-0.42,-0.79,-0.12,0.37
31,27,41,-0.82,-0.49,-0.42,-0.92,-0.06,0.37
31,27,41,-0.82,-0.49,-0.42,-0.92,-0.12,0.49
31,27,41,-0.82,-0.49,-0.42,-0.79,-0.06,0.49
31,27,41,-0.82,-0.49,-0.42,-0.79,-0.06,0.49
31,27,41,-0.82,-0.49,-0.42,-0.85,-0.24,0.37
31,27,41,-0.82,-0.49,-0.42,-0.73,-0.06,0.37
31,27,41,-0.82,-0.49,-0.42,-0.67,0.06,0.24
31,27,41,-0.82,-0.49,-0.42,-0.92,-0.06,0.37
31,27,41,-0.82,-0.49,-0.42,-0.98,-0.18,0.49
31,27,41,-0.82,-0.49,-0.42,-0.98,-0.18,0.49
31,27,41,-0.82,-0.49,-0.42,-0.79,-0.18,0.49
31,27,41,-0.82,-0.49,-0.42,-0.79,-0.12,0.37
31,27,41,-0.82,-0.49,-0.42,-0.79,-0.37,0.37
31,27,41,-0.82,-0.49,-0.42,-0.92,-0.12,0.31
31,27,41,-0.82,-0.48,-0.42,-0.92,-0.12,0.31
31,27,41,-0.82,-0.49,-0.42,-0.73,-0.12,0.31
31,27,41,-0.82,-0.49,-0.42,-0.85,-0.06,0.49
31,27,41,-0.82,-0.49,-0.42,-0.73,-0.24,0.49
31,27,41,-0.82,-0.49,-0.42,-0.73,-0.18,0.55
31,27,41,-0.82,-0.49,-0.42,-0.73,-0.18,0.55
31,27,41,-0.82,-0.49,-0.42,-0.73,-0.18,0.49
31,27,41,-0.82,-0.49,-0.42,-0.73,-0.18,0.43
31,27,41,-0.82,-0.49,-0.42,-0.73,-0.12,0.37
31,27,41,-0.82,-0.49,-0.42,-0.67,-0.06,0.49
31,27,41,-0.82,-0.49,-0.42,-0.67,-0.06,0.49
31,27,41,-0.82,-0.49,-0.42,-0.67,-0.06,0.43
31,27,41,-0.82,-0.49,-0.42,-0.61,-0.12,0.31
31,27,41,-0.82,-0.49,-0.42,-0.73,-0.18,0.18
31,27,41,-0.82,-0.49,-0.42,-0.73,-0.18,0.31
31,27,41,-0.82,-0.49,-0.42,-0.73,-0.18,0.31
31,27,41,-0.82,-0.49,-0.42,-0.79,-0.24,0.43
31,27,41,-0.82,-0.49,-0.42,-0.73,-0.06,0.61
31,27,41,-0.82,-0.49,-0.42,-0.98,0.06,0.43
31,27,41,-0.82,-0.49,-0.42,-1.04,-0.18,0.49
31,27,41,-0.82,-0.49,-0.42,-1.04,-0.18,0.49
31,27,41,-0.82,-0.49,-0.42,-1.22,0,0.37
31,27,41,-0.82,-0.49,-0.42,-1.28,0.06,0.18
31,27,41,-0.82,-0.49,-0.42,-1.28,0.06,0.31
31,27,41,-0.82,-0.49,-0.42,-1.1,-0.06,0.43
31,27,41,-0.82,-0.49,-0.42,-1.1,-0.06,0.43
31,27,41,-0.82,-0.49,-0.42,-1.04,0.06,0.43
31,27,41,-0.82,-0.48,-0.42,-0.98,-0.06,0.49
31,27,41,-0.82,-0.49,-0.42,-0.98,0,0.49
31,27,41,-0.82,-0.49,-0.42,-1.1,0.12,0.37
31,27,41,-0.82,-0.49,-0.42,-1.1,0.12,0.37
31,27,41,-0.82,-0.49,-0.42,-0.98,0,0.43
31,27,41,-0.82,-0.49,-0.42,-0.98,-0.06,0.43
31,27,41,-0.82,-0.49,-0.42,-1.04,0,0.49
31,27,41,-0.82,-0.49,-0.42,-1.04,0,0.49
31,27,41,-0.82,-0.49,-0.42,-0.85,-0.12,0.49
31,27,41,-0.82,-0.49,-0.42,-1.16,0.06,0.43
31,27,40,-0.82,-0.49,-0.42,-1.16,0,0.31
31,27,40,-0.82,-0.49,-0.42,-1.04,-0.12,0.37
31,27,40,-0.82,-0.49,-0.42,-1.04,-0.12,0.37
31,27,40,-0.82,-0.49,-0.41,-1.04,-0.18,0.43
31,27,41,-0.82,-0.48,-0.41,-0.92,-0.12,0.37
31,27,41,-0.82,-0.49,-0.42,-0.79,-0.12,0.49
31,27,41,-0.82,-0.49,-0.42,-0.79,0,0.55
31,27,41,-0.82,-0.49,-0.42,-0.79,0,0.55
31,27,41,-0.82,-0.49,-0.41,-0.55,-0.12,0.61
31,27,41,-0.82,-0.49,-0.42,-0.73,-0.06,0.61
31,27,41,-0.82,-0.49,-0.42,-0.79,0,0.49
31,27,41,-0.82,-0.49,-0.41,-0.92,-0.18,0.55
31,27,41,-0.82,-0.49,-0.41,-0.92,-0.18,0.55
31,27,41,-0.82,-0.49,-0.42,-0.98,-0.18,0.61
31,27,41,-0.82,-0.49,-0.42,-0.92,-0.12,0.61
31,27,41,-0.82,-0.49,-0.41,-0.73,0.12,0.37
31,27,40,-0.82,-0.49,-0.41,-0.79,0.12,0.24
31,27,40,-0.82,-0.49,-0.41,-0.79,0.12,0.24
31,27,40,-0.82,-0.49,-0.41,-0.67,0,0.49
31,27,40,-0.82,-0.49,-0.41,-0.73,0.18,0.49
31,27,40,-0.82,-0.48,-0.41,-0.67,0.06,0.55
31,27,40,-0.82,-0.48,-0.41,-0.61,-0.18,0.61
31,27,40,-0.82,-0.48,-0.42,-0.61,-0.18,0.61
31,27,41,-0.82,-0.48,-0.41,-0.61,0,0.67
31,27,41,-0.82,-0.48,-0.41,-0.31,-0.06,0.67
31,27,41,-0.82,-0.49,-0.41,-0.06,0,0.85
30,27,41,-0.82,-0.49,-0.41,-0.12,0.12,0.67
31,27,41,-0.83,-0.49,-0.42,-0.12,0.12,0.67
31,27,40,-0.82,-0.49,-0.42,-0.12,0.06,0.61
31,27,40,-0.83,-0.49,-0.42,-0.24,-0.06,0.55
31,27,40,-0.82,-0.49,-0.41,-0.43,-0.31,0.49
31,27,40,-0.82,-0.49,-0.41,-0.43,-0.31,0.49
31,27,40,-0.82,-0.49,-0.41,-0.67,-0.49,0.55
31,27,40,-0.82,-0.48,-0.41,-0.67,-0.55,0.61
31,27,40,-0.82,-0.48,-0.41,-0.61,-0.43,0.55
31,27,40,-0.82,-0.48,-0.41,-0.43,-0.37,0.73
31,27,40,-0.82,-0.48,-0.41,-0.43,-0.37,0.73
31,27,40,-0.82,-0.48,-0.41,-0.43,-0.31,0.92
31,27,40,-0.82,-0.48,-0.41,-0.37,-0.24,0.73
31,27,40,-0.82,-0.49,-0.41,-0.24,-0.24,0.79
31,27,40,-0.82,-0.49,-0.41,-0.24,-0.24,0.85
31,27,40,-0.82,-0.49,-0.41,-0.24,-0.24,0.85
31,27,40,-0.82,-0.49,-0.41,-0.12,-0.37,0.79
31,27,40,-0.82,-0.49,-0.41,0.06,-0.37,0.73
31,27,40,-0.82,-0.49,-0.41,0.06,-0.67,0.92
31,27,40,-0.82,-0.49,-0.42,-0.06,-0.67,0.73
31,27,40,-0.82,-0.49,-0.42,0.12,-0.67,0.85
31,27,40,-0.82,-0.49,-0.42,0.12,-0.67,0.85
31,27,40,-0.82,-0.49,-0.42,0.24,-0.85,0.73
31,27,40,-0.82,-0.49,-0.42,0.24,-0.79,0.73
31,27,40,-0.82,-0.49,-0.42,0.24,-0.73,0.67
31,27,41,-0.82,-0.49,-0.42,0.37,-0.73,0.61
31,27,41,-0.82,-0.49,-0.42,0.37,-0.73,0.61
31,27,41,-0.82,-0.49,-0.42,0.24,-0.85,0.55
31,27,41,-0.82,-0.49,-0.42,0.06,-0.73,0.67
31,27,41,-0.82,-0.49,-0.42,0,-0.73,0.73
31,27,41,-0.82,-0.49,-0.42,0,-0.73,0.73
31,27,41,-0.82,-0.49,-0.42,-0.06,-0.79,0.73
31,27,41,-0.82,-0.49,-0.42,0.06,-0.85,0.61
31,27,41,-0.82,-0.49,-0.42,0,-0.85,0.55
31,27,41,-0.82,-0.49,-0.42,-0.12,-0.79,0.49
31,27,41,-0.82,-0.49,-0.42,-0.12,-0.79,0.49
31,27,41,-0.82,-0.48,-0.42,-0.12,-0.55,0.61
31,27,41,-0.82,-0.49,-0.42,-0.24,-0.55,0.61
31,27,41,-0.82,-0.49,-0.42,-0.06,-0.67,0.49
31,27,41,-0.82,-0.49,-0.42,-0.12,-0.49,0.55
31,27,41,-0.82,-0.49,-0.42,-0.12,-0.49,0.55
31,27,41,-0.82,-0.49,-0.42,-0.31,-0.67,0.55
31,27,41,-0.82,-0.49,-0.42,-0.18,-0.79,0.55
31,27,41,-0.82,-0.49,-0.42,-0.31,-0.79,0.61
31,27,41,-0.82,-0.49,-0.42,-0.18,-0.73,0.49
31,27,41,-0.82,-0.49,-0.42,-0.24,-0.61,0.49
31,27,41,-0.82,-0.49,-0.42,-0.24,-0.61,0.49
31,27,41,-0.82,-0.49,-0.42,-0.37,-0.61,0.61
31,27,41,-0.82,-0.49,-0.42,-0.31,-0.73,0.43
31,27,41,-0.82,-0.49,-0.42,-0.12,-0.73,0.43
31,27,41,-0.82,-0.49,-0.42,-0.12,-0.61,0.49
31,27,41,-0.82,-0.49,-0.42,-0.12,-0.61,0.49
31,27,41,-0.82,-0.49,-0.42,-0.18,-0.67,0.43
31,27,41,-0.82,-0.49,-0.42,-0.12,-0.67,0.55
31,27,41,-0.82,-0.49,-0.42,-0.12,-0.61,0.61
31,27,41,-0.82,-0.49,-0.42,-0.06,-0.55,0.37
31,27,41,-0.82,-0.49,-0.42,-0.06,-0.55,0.37
31,27,41,-0.82,-0.49,-0.42,-0.18,-0.55,0.55
31,27,41,-0.82,-0.49,-0.42,-0.31,-0.55,0.49
31,27,41,-0.82,-0.49,-0.42,-0.24,-0.49,0.55
31,27,41,-0.82,-0.49,-0.42,-0.43,-0.49,0.61
31,27,41,-0.82,-0.49,-0.42,-0.31,-0.43,0.55
31,27,41,-0.82,-0.49,-0.42,-0.31,-0.43,0.55
31,27,41,-0.82,-0.49,-0.42,-0.18,-0.31,0.31
31,27,41,-0.82,-0.49,-0.42,-0.37,-0.37,0.43
31,27,41,-0.82,-0.49,-0.42,-0.31,-0.43,0.55
31,27,41,-0.82,-0.49,-0.42,-0.37,-0.49,0.49
31,27,41,-0.82,-0.49,-0.42,-0.37,-0.49,0.49
31,27,41,-0.82,-0.49,-0.42,-0.43,-0.55,0.49
31,27,41,-0.82,-0.49,-0.42,-0.55,-0.43,0.55
31,27,41,-0.82,-0.49,-0.42,-0.61,-0.43,0.37
31,27,41,-0.82,-0.49,-0.42,-0.73,-0.37,0.43
31,27,41,-0.82,-0.49,-0.42,-0.73,-0.37,0.43
31,27,41,-0.82,-0.49,-0.42,-0.73,-0.37,0.55
31,27,41,-0.82,-0.49,-0.42,-0.67,-0.37,0.61
31,27,41,-0.82,-0.49,-0.42,-0.61,-0.31,0.55
31,27,41,-0.82,-0.49,-0.42,-0.67,-0.37,0.31
31,27,41,-0.82,-0.49,-0.42,-0.67,-0.37,0.31
31,27,41,-0.82,-0.49,-0.42,-0.92,-0.43,0.31
31,27,41,-0.82,-0.49,-0.42,-0.92,-0.43,0.43
31,27,41,-0.82,-0.49,-0.42,-0.73,-0.31,0.43
31,27,41,-0.82,-0.49,-0.42,-0.73,-0.37,0.43
31,27,41,-0.82,-0.49,-0.42,-0.73,-0.37,0.43
31,27,41,-0.82,-0.49,-0.42,-0.61,-0.43,0.49
31,27,41,-0.82,-0.49,-0.42,-0.43,-0.18,0.31
31,27,41,-0.82,-0.49,-0.42,-0.73,-0.37,0.37
31,27,41,-0.82,-0.49,-0.42,-0.67,-0.31,0.55
31,27,41,-0.82,-0.49,-0.42,-0.67,-0.18,0.67
31,27,41,-0.82,-0.49,-0.42,-0.67,-0.18,0.67
31,27,41,-0.82,-0.49,-0.42,-0.67,-0.18,0.55
31,27,41,-0.82,-0.49,-0.42,-0.49,-0.31,0.43
31,27,41,-0.82,-0.49,-0.42,-0.61,-0.24,0.55
31,27,41,-0.82,-0.49,-0.42,-0.61,-0.12,0.43
31,27,41,-0.82,-0.49,-0.42,-0.61,-0.12,0.43
31,27,41,-0.82,-0.49,-0.42,-0.67,-0.24,0.49
31,27,41,-0.82,-0.49,-0.42,-0.73,-0.31,0.55
31,27,41,-0.82,-0.49,-0.42,-0.67,-0.31,0.49
31,27,41,-0.82,-0.48,-0.42,-0.61,-0.37,0.61
31,27,41,-0.82,-0.48,-0.42,-0.61,-0.37,0.61
31,27,41,-0.82,-0.49,-0.42,-0.55,-0.37,0.55
31,27,41,-0.82,-0.49,-0.42,-0.67,-0.31,0.43
31,27,41,-0.82,-0.49,-0.42,-0.61,-0.31,0.61
31,27,41,-0.82,-0.49,-0.42,-0.55,-0.43,0.67
31,27,41,-0.82,-0.49,-0.42,-0.55,-0.43,0.67
31,27,41,-0.82,-0.49,-0.42,-0.61,-0.37,0.61
31,27,41,-0.82,-0.49,-0.42,-0.61,-0.12,0.67
31,27,41,-0.82,-0.49,-0.42,-0.55,-0.18,0.49
31,27,41,-0.82,-0.49,-0.42,-0.61,-0.12,0.31
31,27,41,-0.82,-0.49,-0.42,-0.43,-0.12,0.31
31,27,41,-0.82,-0.49,-0.42,-0.43,-0.12,0.31
31,27,41,-0.82,-0.49,-0.42,-0.43,-0.06,0.31
31,27,41,-0.82,-0.48,-0.42,-0.43,-0.31,0.37
31,27,41,-0.82,-0.48,-0.42,-0.31,-0.24,0.43
31,27,41,-0.82,-0.48,-0.42,-0.31,-0.31,0.55
31,27,41,-0.82,-0.48,-0.42,-0.31,-0.31,0.55
31,27,41,-0.82,-0.48,-0.42,-0.43,-0.31,0.49
31,27,41,-0.82,-0.49,-0.42,-0.12,-0.31,0.67
31,27,41,-0.82,-0.49,-0.42,-0.31,-0.18,0.67
31,27,41,-0.82,-0.49,-0.42,-0.43,-0.12,0.55
31,27,41,-0.82,-0.49,-0.42,-0.43,-0.12,0.55
31,27,41,-0.82,-0.49,-0.42,-0.67,-0.43,0.61
31,27,41,-0.82,-0.49,-0.42,-0.79,-0.43,0.55
31,27,41,-0.82,-0.49,-0.42,-0.85,-0.55,0.43
31,27,41,-0.82,-0.49,-0.42,-0.67,-0.49,0.55
31,27,41,-0.82,-0.49,-0.42,-0.67,-0.49,0.55
31,27,41,-0.82,-0.49,-0.42,-0.79,-0.49,0.61
31,27,41,-0.82,-0.49,-0.42,-0.79,-0.43,0.55
31,27,41,-0.82,-0.49,-0.42,-0.55,-0.43,0.67
31,27,41,-0.82,-0.49,-0.41,-0.55,-0.24,0.49
31,27,41,-0.82,-0.49,-0.41,-0.55,-0.24,0.49
31,27,41,-0.82,-0.49,-0.42,-0.55,-0.24,0.49
31,27,41,-0.82,-0.49,-0.41,-0.31,-0.37,0.43
31,27,41,-0.82,-0.49,-0.42,0,-0.31,0.55
31,27,41,-0.82,-0.49,-0.42,0.12,-0.31,0.61
31,27,40,-0.82,-0.49,-0.42,0,-0.37,0.43
31,27,40,-0.82,-0.49,-0.42,0,-0.37,0.43
31,27,40,-0.82,-0.49,-0.42,-0.12,-0.31,0.37
31,27,41,-0.82,-0.49,-0.42,-0.31,-0.18,0.31
31,27,41,-0.82,-0.49,-0.42,-0.06,-0.31,0.24
31,27,41,-0.82,-0.49,-0.42,0,-0.49,0.31
31,27,41,-0.82,-0.49,-0.42,0,-0.49,0.31
31,27,41,-0.82,-0.49,-0.42,0,-0.31,0.43
31,27,41,-0.82,-0.49,-0.42,0,-0.31,0.49
31,27,41,-0.82,-0.49,-0.42,-0.12,-0.31,0.31
31,27,41,-0.82,-0.49,-0.42,-0.12,-0.43,0.55
31,27,41,-0.82,-0.49,-0.42,-0.12,-0.43,0.55
31,27,41,-0.82,-0.49,-0.42,-0.12,-0.49,0.43
31,27,41,-0.82,-0.49,-0.42,-0.18,-0.61,0.55
31,27,41,-0.82,-0.48,-0.42,-0.31,-0.85,0.61
31,27,41,-0.82,-0.49,-0.42,-0.43,-0.79,0.61
31,27,41,-0.82,-0.49,-0.42,-0.43,-0.79,0.61
31,27,41,-0.82,-0.49,-0.42,-0.49,-0.73,0.55
31,27,41,-0.82,-0.49,-0.42,-0.49,-0.67,0.43
31,27,41,-0.82,-0.49,-0.42,-0.49,-0.43,0.49
31,27,41,-0.82,-0.49,-0.42,-0.49,-0.31,0.55
31,27,41,-0.82,-0.49,-0.42,-0.49,-0.31,0.55
31,27,41,-0.82,-0.49,-0.42,-0.49,-0.37,0.55
31,27,41,-0.82,-0.49,-0.42,-0.67,-0.55,0.49
31,27,41,-0.82,-0.49,-0.42,-0.85,-0.43,0.49
31,27,41,-0.82,-0.49,-0.42,-0.73,-0.24,0.61
31,27,41,-0.82,-0.49,-0.42,-0.73,-0.24,0.61
31,27,41,-0.82,-0.49,-0.42,-0.55,-0.31,0.49
31,27,41,-0.82,-0.49,-0.42,-0.43,-0.49,0.43
31,27,41,-0.82,-0.49,-0.42,-0.55,-0.49,0.37
31,27,41,-0.82,-0.49,-0.42,-0.61,-0.43,0.43
31,27,41,-0.82,-0.49,-0.42,-0.61,-0.43,0.24
31,27,41,-0.82,-0.49,-0.42,-0.61,-0.43,0.24
31,27,41,-0.82,-0.49,-0.42,-0.55,-0.43,0.43
31,27,41,-0.82,-0.49,-0.42,-0.43,-0.43,0.43
31,27,41,-0.82,-0.49,-0.42,-0.49,-0.31,0.43
31,27,41,-0.82,-0.49,-0.42,-0.43,-0.37,0.43
31,27,41,-0.82,-0.49,-0.42,-0.43,-0.37,0.43
31,27,41,-0.82,-0.49,-0.42,-0.61,-0.37,0.61
31,27,41,-0.82,-0.49,-0.42,-0.61,-0.43,0.37
31,27,41,-0.82,-0.49,-0.42,-0.55,-0.18,0.43
31,27,41,-0.82,-0.49,-0.42,-0.61,-0.24,0.43
31,27,41,-0.82,-0.49,-0.42,-0.61,-0.24,0.43
31,27,41,-0.82,-0.49,-0.42,-0.61,-0.31,0.55
31,27,41,-0.82,-0.49,-0.42,-0.43,-0.24,0.43
31,27,41,-0.82,-0.49,-0.42,-0.31,-0.18,0.37
31,27,41,-0.82,-0.49,-0.42,-0.55,-0.18,0.37
31,27,41,-0.82,-0.49,-0.42,-0.55,-0.18,0.37
31,27,41,-0.82,-0.49,-0.42,-0.61,-0.06,0.55
31,27,41,-0.82,-0.49,-0.42,-0.73,-0.06,0.43
31,27,41,-0.82,-0.49,-0.42,-0.67,-0.18,0.43
31,27,41,-0.82,-0.49,-0.42,-0.67,-0.18,0.49
31,27,41,-0.82,-0.49,-0.42,-0.67,-0.18,0.49
31,27,41,-0.82,-0.49,-0.42,-0.73,-0.18,0.49
31,27,41,-0.82,-0.49,-0.42,-0.85,-0.18,0.37
31,27,41,-0.82,-0.49,-0.42,-0.67,-0.31,0.37
31,27,41,-0.82,-0.49,-0.42,-0.61,-0.37,0.55
31,27,41,-0.82,-0.49,-0.42,-0.79,-0.24,0.49
31,27,41,-0.82,-0.49,-0.42,-0.79,-0.24,0.49
31,27,41,-0.82,-0.49,-0.42,-0.92,-0.24,0.43
31,27,41,-0.82,-0.49,-0.42,-0.73,-0.24,0.49
31,27,41,-0.82,-0.49,-0.42,-0.98,-0.12,0.43
31,27,41,-0.82,-0.49,-0.42,-0.67,-0.31,0.55
31,27,41,-0.82,-0.49,-0.42,-0.67,-0.31,0.55
31,27,41,-0.82,-0.49,-0.42,-0.55,-0.24,0.43
31,27,41,-0.82,-0.49,-0.42,-0.55,-0.24,0.61
31,27,41,-0.82,-0.49,-0.42,-0.24,-0.31,0.61
31,27,41,-0.82,-0.49,-0.42,-0.55,-0.24,0.49
31,27,41,-0.82,-0.49,-0.42,-0.55,-0.24,0.49
31,27,41,-0.82,-0.49,-0.42,-0.49,-0.31,0.43
31,27,41,-0.82,-0.49,-0.42,-0.43,-0.31,0.61
31,27,41,-0.82,-0.49,-0.42,-0.61,-0.31,0.55
31,27,41,-0.82,-0.49,-0.42,-0.67,-0.31,0.55
31,27,41,-0.82,-0.49,-0.42,-0.67,-0.31,0.55
31,27,41,-0.82,-0.49,-0.42,-0.49,-0.43,0.43
31,27,41,-0.82,-0.49,-0.42,-0.55,-0.43,0.49
31,27,41,-0.82,-0.49,-0.42,-0.61,-0.43,0.43
31,27,41,-0.82,-0.49,-0.42,-0.43,-0.49,0.55
31,27,41,-0.82,-0.49,-0.42,-0.43,-0.31,0.55
31,27,41,-0.82,-0.49,-0.42,-0.43,-0.31,0.55
31,27,41,-0.82,-0.49,-0.42,-0.55,-0.18,0.55
31,27,41,-0.82,-0.49,-0.42,-0.49,-0.37,0.55
31,27,41,-0.82,-0.49,-0.42,-0.49,-0.37,0.31
31,27,41,-0.82,-0.49,-0.42,-0.67,-0.31,0.49
31,27,41,-0.82,-0.49,-0.42,-0.67,-0.31,0.49
31,27,41,-0.82,-0.49,-0.42,-0.67,-0.43,0.61
31,27,41,-0.82,-0.49,-0.42,-0.49,-0.43,0.49
31,27,41,-0.82,-0.49,-0.42,-0.43,-0.55,0.49
31,27,41,-0.82,-0.49,-0.42,-0.49,-0.49,0.55
31,27,41,-0.82,-0.49,-0.42,-0.49,-0.49,0.55
31,27,41,-0.82,-0.49,-0.42,-0.43,-0.43,0.43
31,27,41,-0.82,-0.49,-0.42,-0.49,-0.31,0.31
31,27,41,-0.82,-0.49,-0.42,-0.31,-0.24,0.43
31,27,41,-0.82,-0.49,-0.42,-0.31,-0.12,0.31
31,27,41,-0.82,-0.49,-0.42,-0.49,-0.18,0.31
31,27,41,-0.82,-0.48,-0.42,-0.49,-0.18,0.31
31,27,41,-0.82,-0.48,-0.42,-0.37,-0.18,0.43
31,27,41,-0.82,-0.48,-0.42,-0.37,-0.24,0.24
31,27,41,-0.82,-0.48,-0.42,-0.31,-0.12,0.43
31,27,41,-0.82,-0.49,-0.42,-0.24,-0.31,0.43
31,27,41,-0.82,-0.49,-0.42,-0.24,-0.31,0.43
31,27,41,-0.82,-0.49,-0.42,-0.12,-0.18,0.61
31,27,41,-0.82,-0.49,-0.42,-0.31,-0.12,0.79
31,27,41,-0.82,-0.49,-0.42,-0.49,0,0.73
31,27,41,-0.82,-0.49,-0.42,-0.73,-0.37,0.49
31,27,41,-0.82,-0.49,-0.42,-0.73,-0.37,0.49
31,27,41,-0.82,-0.49,-0.42,-1.04,-0.31,0.43
31,27,41,-0.82,-0.49,-0.42,-0.92,-0.37,0.61
31,27,41,-0.82,-0.48,-0.42,-0.92,-0.37,0.61
31,27,41,-0.82,-0.48,-0.42,-0.73,-0.37,0.61
31,27,41,-0.82,-0.48,-0.42,-0.73,-0.37,0.61
31,27,41,-0.82,-0.49,-0.42,-0.61,-0.24,0.61
31,27,41,-0.82,-0.49,-0.42,-0.67,-0.18,0.55
31,27,41,-0.82,-0.49,-0.42,-0.67,-0.37,0.49
31,27,41,-0.82,-0.49,-0.42,-0.61,-0.43,0.73
31,27,41,-0.82,-0.49,-0.42,-0.49,-0.37,0.55
31,27,41,-0.82,-0.49,-0.42,-0.49,-0.37,0.55
31,27,41,-0.82,-0.49,-0.42,-0.43,-0.49,0.49
31,27,41,-0.82,-0.49,-0.42,-0.67,-0.43,0.55
31,27,41,-0.82,-0.49,-0.42,-0.55,-0.24,0.43
31,27,41,-0.82,-0.49,-0.42,-0.55,-0.37,0.61
31,27,41,-0.82,-0.49,-0.42,-0.55,-0.37,0.61
31,27,41,-0.82,-0.49,-0.42,-0.43,-0.43,0.61
31,27,41,-0.82,-0.49,-0.42,-0.37,-0.37,0.61
31,27,41,-0.82,-0.49,-0.42,-0.31,-0.24,0.55
31,27,41,-0.82,-0.48,-0.42,-0.31,-0.18,0.67
31,27,41,-0.82,-0.48,-0.42,-0.31,-0.18,0.67
31,27,41,-0.82,-0.49,-0.42,-0.31,-0.43,0.43
31,27,41,-0.82,-0.49,-0.42,-0.24,-0.49,0.37
31,27,41,-0.82,-0.49,-0.42,-0.37,-0.43,0.61
31,27,41,-0.82,-0.49,-0.42,-0.55,-0.31,0.61
31,27,41,-0.82,-0.49,-0.42,-0.67,-0.37,0.49
31,27,41,-0.82,-0.49,-0.42,-0.67,-0.37,0.49
31,27,41,-0.82,-0.49,-0.42,-0.67,-0.67,0.55
31,27,41,-0.82,-0.49,-0.42,-0.79,-0.61,0.49
31,27,41,-0.82,-0.49,-0.42,-0.92,-0.49,0.37
31,27,41,-0.82,-0.49,-0.42,-0.92,-0.37,0.43
31,27,41,-0.82,-0.48,-0.42,-0.92,-0.37,0.43
31,27,41,-0.82,-0.48,-0.42,-0.85,0,0.24
31,27,41,-0.82,-0.49,-0.42,-0.92,-0.06,0.49
31,27,41,-0.82,-0.49,-0.42,-0.61,-0.12,0.37
31,27,41,-0.82,-0.49,-0.42,-0.55,-0.12,0.24
31,27,41,-0.82,-0.49,-0.42,-0.55,-0.12,0.24
31,27,41,-0.82,-0.49,-0.42,-0.67,-0.18,0.43
31,27,41,-0.82,-0.49,-0.42,-0.73,-0.18,0.43
31,27,41,-0.82,-0.49,-0.42,-0.98,-0.37,0.49
31,27,41,-0.82,-0.49,-0.42,-0.85,-0.37,0.43
31,27,41,-0.82,-0.49,-0.42,-0.85,-0.37,0.43
31,27,41,-0.82,-0.49,-0.42,-0.92,-0.31,0.43
31,27,41,-0.82,-0.49,-0.42,-0.92,-0.37,0.31
31,27,41,-0.82,-0.49,-0.42,-0.92,-0.31,0.37
31,27,41,-0.82,-0.49,-0.42,-1.04,-0.37,0.37
31,27,41,-0.82,-0.49,-0.42,-0.98,-0.24,0.49
31,27,41,-0.82,-0.48,-0.42,-0.98,-0.24,0.49
31,27,41,-0.82,-0.48,-0.42,-0.85,-0.37,0.49
31,27,41,-0.82,-0.49,-0.42,-0.79,-0.31,0.49
31,27,41,-0.82,-0.49,-0.42,-0.73,-0.37,0.37
31,27,41,-0.82,-0.49,-0.42,-0.79,-0.24,0.49
31,27,41,-0.82,-0.49,-0.42,-0.79,-0.24,0.49
31,27,41,-0.82,-0.49,-0.42,-0.67,-0.24,0.43
31,27,41,-0.82,-0.49,-0.42,-0.61,-0.06,0.43
31,27,41,-0.82,-0.49,-0.42,-0.61,0,0.37
31,27,41,-0.82,-0.49,-0.42,-0.73,0,0.43
31,27,41,-0.82,-0.49,-0.42,-0.73,0,0.43
31,27,41,-0.82,-0.49,-0.42,-0.67,0,0.31
31,27,41,-0.82,-0.49,-0.42,-0.73,-0.12,0.31
31,27,41,-0.82,-0.49,-0.42,-0.79,-0.24,0.31
31,27,41,-0.82,-0.49,-0.42,-0.73,-0.12,0.31
31,27,41,-0.82,-0.49,-0.42,-0.73,-0.12,0.31
31,27,41,-0.82,-0.49,-0.42,-0.79,-0.12,0.37
31,27,41,-0.82,-0.49,-0.42,-0.79,-0.12,0.31
31,27,41,-0.82,-0.49,-0.42,-0.98,-0.18,0.24
31,27,41,-0.82,-0.49,-0.42,-0.98,-0.12,0.37
31,27,41,-0.82,-0.49,-0.42,-0.98,-0.12,0.37
31,27,41,-0.82,-0.49,-0.42,-0.98,-0.18,0.31
31,27,41,-0.82,-0.49,-0.42,-1.1,-0.06,0.31
31,27,41,-0.82,-0.49,-0.42,-1.16,-0.18,0.31
31,27,41,-0.82,-0.49,-0.42,-1.04,-0.18,0.37
31,27,41,-0.82,-0.49,-0.42,-0.98,-0.06,0.24
31,27,41,-0.82,-0.49,-0.42,-0.98,-0.06,0.24
31,27,41,-0.82,-0.49,-0.42,-0.98,-0.06,0.43
31,27,41,-0.82,-0.49,-0.42,-0.98,0,0.37
31,27,41,-0.82,-0.49,-0.42,-0.92,0,0.24
31,27,41,-0.82,-0.49,-0.42,-0.85,-0.12,0.31
31,27,41,-0.82,-0.49,-0.42,-0.85,-0.12,0.31
31,27,41,-0.82,-0.49,-0.42,-0.85,0,0.43
31,27,41,-0.82,-0.49,-0.42,-0.92,0.06,0.31
31,27,41,-0.82,-0.49,-0.42,-0.85,-0.12,0.49
31,27,41,-0.82,-0.49,-0.42,-0.92,0,0.43
31,27,41,-0.82,-0.49,-0.42,-0.92,0,0.43
31,27,41,-0.82,-0.49,-0.42,-0.85,-0.24,0.37
31,27,41,-0.82,-0.49,-0.42,-0.92,-0.24,0.43
31,27,41,-0.82,-0.49,-0.42,-0.98,-0.31,0.43
31,27,40,-0.82,-0.49,-0.42,-1.04,-0.18,0.37
31,27,40,-0.82,-0.49,-0.42,-1.04,-0.18,0.37
31,27,40,-0.82,-0.49,-0.42,-0.98,-0.12,0.43
31,27,40,-0.82,-0.49,-0.42,-0.85,-0.12,0.43
31,27,40,-0.82,-0.49,-0.41,-0.73,-0.24,0.49
31,27,40,-0.82,-0.49,-0.42,-0.67,-0.12,0.49
31,27,40,-0.82,-0.49,-0.42,-0.67,-0.12,0.49
31,27,40,-0.82,-0.49,-0.42,-0.67,-0.06,0.55
31,27,40,-0.82,-0.49,-0.41,-0.92,-0.24,0.37
31,27,40,-0.82,-0.49,-0.42,-0.92,-0.18,0.43
31,27,41,-0.82,-0.49,-0.42,-0.85,-0.31,0.67
31,27,41,-0.82,-0.49,-0.42,-0.98,-0.37,0.67
31,27,41,-0.82,-0.49,-0.42,-0.98,-0.37,0.67
31,27,41,-0.82,-0.49,-0.42,-1.04,-0.31,0.61
31,27,41,-0.82,-0.49,-0.42,-0.98,-0.18,0.18
31,27,41,-0.82,-0.49,-0.42,-1.1,-0.12,0.18
31,27,40,-0.82,-0.49,-0.42,-1.04,-0.24,0.31
31,27,40,-0.82,-0.49,-0.41,-1.04,-0.24,0.31
31,27,40,-0.82,-0.49,-0.41,-0.98,0.06,0.24
31,27,40,-0.82,-0.49,-0.41,-0.98,0,0.37
31,27,40,-0.82,-0.48,-0.41,-0.79,0.06,0.55
31,27,40,-0.82,-0.48,-0.41,-0.55,0.06,0.37
31,27,40,-0.82,-0.48,-0.41,-0.55,0.06,0.37
31,27,40,-0.82,-0.48,-0.42,-0.73,0,0.43
31,27,41,-0.82,-0.49,-0.42,-0.43,0.12,0.67
31,27,41,-0.82,-0.49,-0.42,-0.31,-0.06,0.55
31,27,41,-0.82,-0.49,-0.42,-0.37,0.06,0.49
31,27,41,-0.82,-0.49,-0.42,-0.37,0.06,0.49
31,27,40,-0.82,-0.49,-0.42,-0.49,-0.06,0.55
31,27,40,-0.82,-0.49,-0.42,-0.61,-0.24,0.55
31,27,40,-0.82,-0.49,-0.41,-0.92,-0.43,0.55
31,27,40,-0.82,-0.49,-0.41,-0.92,-0.43,0.61
31,27,40,-0.82,-0.49,-0.41,-0.92,-0.43,0.61
31,27,40,-0.82,-0.49,-0.41,-0.98,-0.18,0.43
31,27,40,-0.82,-0.48,-0.41,-0.98,-0.37,0.37
31,27,40,-0.82,-0.48,-0.41,-0.79,-0.31,0.43
31,27,40,-0.82,-0.48,-0.41,-0.73,-0.24,0.49
31,27,40,-0.82,-0.48,-0.41,-0.49,-0.06,0.67
31,27,40,-0.82,-0.49,-0.41,-0.49,-0.06,0.67
31,27,40,-0.82,-0.49,-0.41,-0.24,0.06,0.49
31,27,40,-0.82,-0.49,-0.41,-0.31,0.18,0.55
31,27,40,-0.82,-0.49,-0.41,-0.31,-0.06,0.67
31,27,40,-0.82,-0.49,-0.41,-0.31,-0.06,0.67
31,27,40,-0.82,-0.49,-0.41,-0.31,-0.06,0.67
31,27,40,-0.82,-0.49,-0.41,-0.31,0,0.49
31,27,40,-0.82,-0.49,-0.41,0,-0.06,0.49
31,27,40,-0.82,-0.49,-0.41,0.06,-0.12,0.61
31,27,40,-0.82,-0.49,-0.41,0.24,-0.18,0.61
31,27,40,-0.82,-0.49,-0.41,0.24,-0.18,0.61
31,27,40,-0.82,-0.49,-0.42,0.31,-0.06,0.67
31,27,40,-0.82,-0.49,-0.42,0.18,0,0.55
31,27,40,-0.82,-0.49,-0.41,0.18,-0.18,0.43
31,27,40,-0.82,-0.49,-0.41,0.18,-0.18,0.43
31,27,40,-0.82,-0.49,-0.41,0.31,-0.37,0.55
31,27,40,-0.82,-0.49,-0.41,0.18,-0.55,0.67
31,27,40,-0.82,-0.49,-0.41,0,-0.49,0.61
31,27,40,-0.82,-0.49,-0.41,-0.18,-0.55,0.67
31,27,40,-0.82,-0.49,-0.41,-0.18,-0.55,0.67
31,27,40,-0.82,-0.49,-0.42,-0.12,-0.49,0.67
31,27,40,-0.82,-0.48,-0.42,-0.12,-0.49,0.61
31,27,41,-0.82,-0.48,-0.41,-0.12,-0.55,0.85
31,27,41,-0.82,-0.49,-0.42,-0.06,-0.55,0.92
31,27,41,-0.82,-0.49,-0.42,0,-0.37,0.73
31,27,41,-0.82,-0.49,-0.42,0,-0.37,0.73
31,27,41,-0.82,-0.49,-0.42,0.06,-0.49,0.61
31,27,41,-0.82,-0.49,-0.42,0.06,-0.49,0.79
31,27,41,-0.82,-0.49,-0.42,-0.18,-0.49,0.79
31,27,41,-0.82,-0.49,-0.42,-0.18,-0.49,0.79
31,27,41,-0.82,-0.49,-0.42,-0.12,-0.49,0.85
31,27,41,-0.82,-0.49,-0.42,0,-0.61,0.73
31,27,41,-0.82,-0.49,-0.42,-0.24,-0.73,0.79
31,27,41,-0.82,-0.49,-0.42,-0.24,-0.79,0.67
31,27,40,-0.82,-0.49,-0.42,-0.24,-0.85,0.73
31,27,40,-0.82,-0.49,-0.42,-0.24,-0.85,0.73
31,27,40,-0.82,-0.49,-0.42,-0.24,-0.73,0.61
31,27,40,-0.82,-0.49,-0.42,-0.06,-0.79,0.79
31,27,40,-0.82,-0.49,-0.42,-0.12,-0.73,0.67
31,27,40,-0.82,-0.49,-0.42,-0.12,-0.85,0.61
31,27,40,-0.82,-0.49,-0.42,-0.12,-0.85,0.61
31,27,40,-0.82,-0.49,-0.42,-0.24,-0.61,0.73
31,27,40,-0.82,-0.49,-0.41,-0.12,-0.55,0.55
31,27,40,-0.82,-0.49,-0.42,-0.18,-0.55,0.49
31,27,40,-0.82,-0.49,-0.42,-0.06,-0.55,0.61
31,27,40,-0.82,-0.49,-0.42,-0.06,-0.55,0.61
31,27,40,-0.82,-0.49,-0.42,0,-0.55,0.61
31,27,40,-0.82,-0.49,-0.42,0,-0.61,0.49
31,27,41,-0.82,-0.49,-0.42,0.18,-0.49,0.55
31,27,41,-0.82,-0.49,-0.42,0.12,-0.37,0.49
31,27,41,-0.82,-0.49,-0.42,0.12,-0.37,0.49
31,27,41,-0.82,-0.49,-0.42,-0.12,-0.37,0.37
31,27,41,-0.82,-0.49,-0.42,-0.06,-0.49,0.49
31,27,41,-0.82,-0.49,-0.42,-0.18,-0.43,0.43
31,27,41,-0.82,-0.49,-0.42,-0.06,-0.31,0.37
31,27,41,-0.82,-0.49,-0.42,-0.06,-0.31,0.37
31,27,41,-0.82,-0.49,-0.42,-0.06,-0.43,0.37
31,27,41,-0.82,-0.49,-0.42,-0.18,-0.43,0.18
31,27,41,-0.82,-0.49,-0.42,-0.49,-0.31,0.12
31,27,41,-0.82,-0.49,-0.42,-0.55,-0.49,0.49
31,27,41,-0.82,-0.49,-0.42,-0.55,-0.49,0.49
31,27,41,-0.82,-0.49,-0.42,-0.61,-0.49,0.55
31,27,41,-0.82,-0.49,-0.42,-0.55,-0.49,0.61
31,27,41,-0.82,-0.49,-0.42,-0.49,-0.43,0.55
31,27,41,-0.82,-0.49,-0.42,-0.61,-0.49,0.49
31,27,41,-0.82,-0.49,-0.42,-0.61,-0.49,0.49
31,27,41,-0.82,-0.49,-0.42,-0.55,-0.24,0.49
31,27,41,-0.82,-0.49,-0.42,-0.37,-0.37,0.55
31,27,41,-0.82,-0.49,-0.42,-0.37,-0.24,0.43
31,27,41,-0.82,-0.49,-0.42,-0.37,-0.31,0.43
31,27,41,-0.82,-0.49,-0.42,-0.49,-0.24,0.49
31,27,41,-0.82,-0.49,-0.42,-0.49,-0.24,0.49
31,27,41,-0.82,-0.49,-0.42,-0.43,-0.31,0.61
31,27,41,-0.82,-0.49,-0.42,-0.49,-0.31,0.49
31,27,41,-0.82,-0.49,-0.42,-0.49,-0.37,0.55
31,27,41,-0.82,-0.49,-0.42,-0.37,-0.61,0.49
31,27,41,-0.82,-0.49,-0.42,-0.37,-0.61,0.49
31,27,41,-0.82,-0.49,-0.42,-0.49,-0.43,0.61
31,27,41,-0.82,-0.49,-0.42,-0.43,-0.43,0.43
31,27,41,-0.82,-0.49,-0.42,-0.43,-0.31,0.37
31,27,41,-0.82,-0.49,-0.42,-0.49,-0.31,0.55
31,27,41,-0.82,-0.49,-0.42,-0.49,-0.31,0.55
31,27,41,-0.82,-0.49,-0.42,-0.49,-0.24,0.55
31,27,41,-0.82,-0.49,-0.42,-0.55,-0.31,0.43
31,27,41,-0.82,-0.49,-0.42,-0.55,-0.18,0.55
31,27,41,-0.82,-0.49,-0.42,-0.49,-0.24,0.37
31,27,41,-0.82,-0.49,-0.42,-0.49,-0.24,0.37
31,27,41,-0.82,-0.49,-0.42,-0.55,-0.31,0.61
31,27,41,-0.82,-0.49,-0.42,-0.61,-0.43,0.61
31,27,41,-0.82,-0.49,-0.42,-0.61,-0.31,0.61
31,27,41,-0.82,-0.49,-0.42,-0.61,-0.37,0.43
31,27,41,-0.82,-0.49,-0.42,-0.61,-0.37,0.43
31,27,41,-0.82,-0.49,-0.42,-0.49,-0.49,0.43
31,27,41,-0.82,-0.49,-0.42,-0.37,-0.49,0.37
31,27,41,-0.82,-0.49,-0.42,-0.55,-0.43,0.24
31,27,40,-0.82,-0.49,-0.42,-0.49,-0.37,0.37
31,27,40,-0.82,-0.49,-0.42,-0.49,-0.37,0.37
31,27,40,-0.82,-0.49,-0.41,-0.61,-0.24,0.31
31,27,40,-0.82,-0.48,-0.42,-0.55,-0.31,0.37
31,27,41,-0.82,-0.48,-0.42,-0.37,-0.43,0.37
31,27,41,-0.82,-0.48,-0.42,-0.24,-0.37,0.43
31,27,41,-0.82,-0.48,-0.42,-0.24,-0.37,0.24
31,27,41,-0.82,-0.48,-0.42,-0.24,-0.37,0.24
31,27,41,-0.82,-0.49,-0.42,-0.12,-0.31,0.43
31,27,41,-0.82,-0.49,-0.42,-0.18,-0.24,0.43
31,27,41,-0.82,-0.49,-0.42,-0.31,-0.31,0.55
31,27,41,-0.82,-0.49,-0.42,-0.55,-0.31,0.49
31,27,41,-0.82,-0.49,-0.42,-0.55,-0.31,0.49
31,27,41,-0.82,-0.49,-0.42,-0.73,-0.31,0.55
31,27,41,-0.82,-0.49,-0.42,-0.98,-0.61,0.37
31,27,41,-0.82,-0.49,-0.42,-0.92,-0.73,0.49
31,27,41,-0.82,-0.49,-0.42,-0.79,-0.49,0.61
31,27,41,-0.82,-0.49,-0.42,-0.79,-0.49,0.61
31,27,41,-0.82,-0.48,-0.41,-0.73,-0.55,0.67
31,27,41,-0.82,-0.48,-0.41,-0.73,-0.49,0.73
31,27,41,-0.82,-0.49,-0.42,-0.49,-0.55,0.73
31,27,41,-0.82,-0.49,-0.42,-0.24,-0.37,0.43
31,27,41,-0.82,-0.49,-0.42,-0.24,-0.49,0.31
31,27,40,-0.82,-0.49,-0.42,-0.24,-0.49,0.31
31,27,40,-0.82,-0.49,-0.42,-0.31,-0.43,0.43
31,27,40,-0.82,-0.49,-0.42,-0.31,-0.37,0.37
31,27,40,-0.82,-0.49,-0.42,-0.37,-0.37,0.37
31,27,40,-0.82,-0.49,-0.42,-0.31,-0.37,0.37
31,27,40,-0.82,-0.49,-0.42,-0.31,-0.37,0.37
31,27,41,-0.82,-0.49,-0.42,-0.31,-0.18,0.24
31,27,41,-0.82,-0.49,-0.42,-0.06,-0.18,0.43
31,27,41,-0.82,-0.48,-0.42,-0.12,-0.37,0.43
31,27,41,-0.82,-0.49,-0.42,-0.06,-0.49,0.31
31,27,41,-0.82,-0.49,-0.42,-0.06,-0.49,0.31
31,27,41,-0.82,-0.49,-0.42,0.06,-0.55,0.37
31,27,41,-0.82,-0.49,-0.42,0.06,-0.61,0.37
31,27,41,-0.82,-0.49,-0.42,-0.18,-0.67,0.31
31,27,41,-0.82,-0.49,-0.42,-0.06,-0.67,0.31
31,27,41,-0.82,-0.49,-0.42,-0.06,-0.67,0.31
31,27,41,-0.82,-0.49,-0.42,-0.12,-0.61,0.24
31,27,41,-0.82,-0.49,-0.42,-0.06,-0.61,0.37
31,27,41,-0.82,-0.49,-0.42,-0.24,-0.49,0.37
31,27,41,-0.82,-0.49,-0.43,-0.49,-0.43,0.31
31,27,41,-0.82,-0.49,-0.43,-0.49,-0.43,0.31
31,27,41,-0.82,-0.49,-0.43,-0.61,-0.18,0.06
31,27,41,-0.82,-0.49,-0.43,-0.92,0,-0.06
31,27,41,-0.82,-0.49,-0.43,-1.34,0.31,-0.18
31,27,41,-0.82,-0.49,-0.43,-1.46,0.31,-0.31
31,27,41,-0.82,-0.49,-0.43,-1.65,0.61,-0.24
31,27,41,-0.82,-0.49,-0.43,-1.65,0.61,-0.24
31,27,41,-0.83,-0.49,-0.43,-1.83,0.85,-0.37
31,27,41,-0.82,-0.49,-0.43,-1.95,1.28,-0.55
31,27,41,-0.82,-0.49,-0.43,-1.89,1.77,-0.79
31,28,41,-0.83,-0.49,-0.43,-2.2,2.38,-0.92
31,28,41,-0.83,-0.49,-0.43,-2.2,2.38,-0.92
31,28,41,-0.82,-0.49,-0.44,-2.32,3.17,-1.34
31,28,41,-0.82,-0.49,-0.44,-2.5,3.54,-1.53
31,28,42,-0.82,-0.48,-0.43,-2.62,3.72,-1.83
31,28,42,-0.82,-0.48,-0.43,-2.69,4.27,-2.01
31,28,42,-0.82,-0.48,-0.43,-2.69,4.27,-2.01
31,28,42,-0.82,-0.48,-0.42,-2.38,4.76,-2.26
31,28,42,-0.81,-0.48,-0.42,-1.59,5.25,-2.44
31,27,41,-0.81,-0.48,-0.42,-0.49,5.74,-2.75
31,27,41,-0.81,-0.48,-0.42,0.79,6.47,-3.11
31,27,41,-0.81,-0.48,-0.42,0.79,6.47,-3.11
31,27,41,-0.81,-0.49,-0.43,2.14,7.81,-3.48
31,28,41,-0.81,-0.5,-0.44,3.05,9.09,-4.03
31,28,41,-0.83,-0.5,-0.44,3.85,10.38,-4.21
31,28,41,-0.82,-0.49,-0.44,4.52,11.11,-4.82
31,28,41,-0.82,-0.49,-0.44,4.52,11.11,-4.82
31,28,42,-0.82,-0.49,-0.44,5.37,12.08,-5.8
31,28,42,-0.82,-0.48,-0.43,6.23,13.18,-6.84
31,28,42,-0.81,-0.48,-0.43,8,13.37,-7.87
31,28,42,-0.83,-0.49,-0.44,9.89,12.82,-8.12
31,28,42,-0.83,-0.49,-0.44,9.89,12.82,-8.12
31,28,42,-0.84,-0.5,-0.44,10.13,13.12,-8.67
31,28,42,-0.83,-0.49,-0.42,10.01,14.22,-9.09
31,28,42,-0.83,-0.48,-0.42,10.99,14.4,-9.4
31,28,42,-0.83,-0.48,-0.42,12.21,14.34,-9.58
30,28,42,-0.83,-0.47,-0.42,12.21,14.34,-9.58
30,28,42,-0.84,-0.48,-0.43,13.43,13.61,-9.64
30,28,42,-0.84,-0.47,-0.43,14.53,13.43,-9.7
30,28,42,-0.84,-0.46,-0.42,15.99,13.73,-9.95
30,28,42,-0.84,-0.46,-0.42,17.7,14.47,-9.4
30,27,42,-0.83,-0.47,-0.42,17.7,14.47,-9.4
30,27,42,-0.84,-0.46,-0.42,18.43,14.71,-9.09
30,27,42,-0.84,-0.47,-0.42,18.31,15.26,-8.85
30,27,42,-0.84,-0.48,-0.42,17.33,15.75,-9.22
30,27,42,-0.84,-0.48,-0.42,17.33,15.75,-9.22
30,27,42,-0.85,-0.47,-0.43,16.6,15.56,-9.46
30,27,42,-0.83,-0.46,-0.44,16.54,15.93,-9.64
30,27,42,-0.84,-0.5,-0.41,17.82,15.75,-10.01
30,27,42,-0.86,-0.48,-0.42,18.13,16.3,-10.74
30,27,42,-0.86,-0.48,-0.42,18.13,16.3,-10.74
29,27,42,-0.89,-0.46,-0.42,16.78,17.82,-11.23
29,26,42,-0.86,-0.49,-0.42,18.01,21.48,-11.54
29,26,42,-0.87,-0.48,-0.41,19.65,24.48,-12.27
29,26,41,-0.86,-0.49,-0.38,19.1,20.51,-12.88
29,26,41,-0.86,-0.49,-0.38,19.1,20.51,-12.88
29,26,41,-0.89,-0.46,-0.42,16.66,20.2,-13.55
29,26,41,-0.9,-0.45,-0.45,15.38,20.14,-14.65
29,26,41,-0.9,-0.45,-0.48,16.17,20.14,-15.26
29,26,41,-0.92,-0.45,-0.48,17.4,19.41,-15.75
29,26,42,-0.92,-0.45,-0.48,17.4,19.41,-15.75
29,26,42,-0.89,-0.47,-0.49,17.21,19.47,-15.5
29,26,42,-0.86,-0.49,-0.47,19.17,19.47,-15.87
29,26,42,-0.9,-0.49,-0.49,16.24,17.52,-16.72
29,26,42,-0.93,-0.47,-0.48,14.4,15.87,-17.21
29,26,42,-0.93,-0.47,-0.48,14.4,15.87,-17.21
29,26,42,-0.94,-0.45,-0.45,13.31,16.17,-17.76
29,26,42,-0.88,-0.45,-0.46,10.56,18.37,-18.49
29,26,42,-0.88,-0.44,-0.4,11.17,19.47,-20.2
28,26,42,-0.88,-0.42,-0.39,10.99,20.14,-21.3
28,26,42,-0.88,-0.42,-0.39,10.99,20.14,-21.3
28,26,42,-0.87,-0.42,-0.37,8.42,21.06,-22.16
28,26,42,-0.88,-0.4,-0.39,6.04,20.63,-22.77
28,26,42,-0.9,-0.39,-0.42,5.19,19.9,-23.44
28,26,43,-0.9,-0.39,-0.44,6.29,20.69,-23.44
28,26,43,-0.9,-0.39,-0.44,6.29,20.69,-23.44
28,26,43,-0.91,-0.38,-0.44,8.54,22.52,-23.07
27,26,43,-0.9,-0.38,-0.43,10.44,24.11,-22.46
27,26,43,-0.97,-0.39,-0.34,12.15,24.35,-21.55
27,26,43,-1,-0.43,-0.16,10.56,32.96,-21.12
27,26,43,-1,-0.43,-0.16,10.56,32.96,-21.12
27,26,43,-0.91,-0.45,-0.17,3.85,44.86,-21.06
27,26,43,-0.93,-0.38,-0.29,0.79,45.78,-21.06
26,26,43,-0.94,-0.3,-0.34,1.04,40.41,-20.81
26,26,43,-0.95,-0.26,-0.36,4.39,37.72,-21.79
26,26,43,-0.95,-0.26,-0.36,4.39,37.72,-21.79
26,26,43,-0.94,-0.21,-0.4,9.16,40.95,-22.22
26,26,43,-0.94,-0.23,-0.4,14.28,44.56,-23.32
26,26,43,-0.93,-0.24,-0.38,19.59,44.98,-23.99
26,26,43,-0.93,-0.24,-0.38,21.85,41.81,-25.63
26,26,43,-0.91,-0.28,-0.34,21.85,41.81,-25.63
26,26,43,-0.95,-0.3,-0.32,22.89,37.9,-26.43
26,26,43,-0.96,-0.31,-0.28,21.67,36.68,-26.92
26,25,43,-0.98,-0.32,-0.26,21.42,35.46,-26.86
25,25,43,-0.98,-0.32,-0.26,20.57,37.29,-26.86
25,25,43,-0.98,-0.32,-0.23,20.57,37.29,-26.86
25,25,43,-0.97,-0.32,-0.21,19.17,39.25,-26.92
25,25,43,-0.98,-0.31,-0.2,17.76,41.75,-27.28
25,25,43,-0.96,-0.29,-0.2,15.75,43.46,-27.4
24,25,43,-0.96,-0.29,-0.2,15.69,45.53,-27.28
23,25,43,-0.95,-0.26,-0.21,15.69,45.53,-27.28
23,25,43,-0.96,-0.25,-0.24,16.85,47,-26.79
22,24,43,-0.98,-0.23,-0.25,17.88,50.6,-26.73
22,24,43,-0.99,-0.23,-0.28,17.52,53.83,-27.65
22,23,43,-0.99,-0.23,-0.28,17.94,55.3,-28.32
22,23,43,-1.01,-0.23,-0.3,17.94,55.3,-28.32
22,23,43,-1.02,-0.24,-0.3,19.35,55.73,-28.44
22,23,43,-1.03,-0.25,-0.3,21.55,54.5,-28.08
21,22,43,-1.05,-0.26,-0.28,23.68,51.88,-27.16
21,22,43,-1.05,-0.26,-0.28,23.68,51.88,-27.16
20,22,43,-1.06,-0.29,-0.27,24.48,49.74,-26.43
20,21,43,-1.05,-0.31,-0.26,24.11,48.52,-25.88
19,20,43,-1.05,-0.27,-0.24,22.22,47.49,-25.51
19,20,43,-1.04,-0.23,-0.23,22.03,46.14,-24.9
18,19,43,-1.04,-0.23,-0.23,22.03,46.14,-24.9
18,19,43,-1.05,-0.21,-0.2,24.48,45.41,-24.72
18,19,43,-1.05,-0.17,-0.18,27.16,46.08,-24.54
18,19,43,-1.03,-0.16,-0.19,30.09,48.77,-24.29
18,19,43,-1.01,-0.14,-0.17,32.04,50.6,-24.23
18,18,43,-1.01,-0.14,-0.17,32.04,50.6,-24.23
18,18,43,-0.98,-0.15,-0.2,32.47,51.27,-25.88
17,18,43,-0.97,-0.17,-0.19,36.56,49.56,-27.28
17,18,44,-0.97,-0.16,-0.18,40.28,48.58,-27.16
17,17,44,-0.99,-0.18,-0.19,41.69,50.05,-26.31
17,16,44,-0.99,-0.18,-0.19,41.69,50.05,-26.31
17,15,44,-0.98,-0.21,-0.19,42.05,53.59,-26.79
16,14,44,-0.98,-0.24,-0.2,40.95,55.79,-27.04
16,14,44,-0.97,-0.25,-0.21,43.33,55.24,-25.21
16,13,44,-0.98,-0.27,-0.18,41.56,54.5,-22.22
16,13,44,-0.98,-0.27,-0.18,41.56,54.5,-22.22
16,12,44,-1,-0.23,-0.17,40.89,52.49,-19.23
16,12,44,-0.98,-0.22,-0.12,40.22,50.17,-15.56
16,12,43,-0.96,-0.2,-0.09,41.87,47.91,-12.39
16,12,43,-0.96,-0.2,-0.09,41.63,47,-9.83
16,12,43,-0.96,-0.18,-0.08,41.63,47,-9.83
16,12,43,-1,-0.2,-0.13,39.43,48.22,-8.73
15,12,43,-0.99,-0.17,-0.19,34.97,52.86,-10.38
15,12,43,-0.99,-0.23,-0.15,37.23,56.88,-11.9
15,12,43,-0.99,-0.23,-0.15,31.8,63.9,-13.24
15,11,43,-0.99,-0.26,-0.17,31.8,63.9,-13.24
15,11,43,-0.98,-0.26,-0.16,23.62,70.31,-13.98
15,11,43,-0.95,-0.28,-0.15,16.42,72.69,-13.79
15,11,43,-0.93,-0.28,-0.15,10.86,72.45,-13.12
15,11,43,-0.93,-0.28,-0.15,10.86,72.45,-13.12
15,11,42,-0.94,-0.3,-0.12,6.1,71.11,-10.8
15,11,42,-0.96,-0.32,-0.11,2.87,70.19,-8.54
15,11,42,-0.95,-0.32,-0.09,-0.67,69.89,-6.77
15,10,42,-0.97,-0.33,-0.08,-3.78,72.81,-4.58
15,10,42,-0.97,-0.33,-0.08,-3.78,72.81,-4.58
15,10,42,-0.99,-0.32,-0.09,-8,78.86,-2.87
16,10,42,-1,-0.32,-0.09,-11.35,84.35,-1.89
16,10,42,-0.98,-0.34,-0.06,-15.26,88.81,-2.2
16,10,42,-0.98,-0.33,-0.07,-21.67,90.94,-2.62
17,10,41,-0.98,-0.33,-0.07,-26.18,91.74,-2.75
17,10,41,-0.99,-0.31,-0.06,-26.18,91.74,-2.75
17,9,40,-1,-0.3,-0.06,-29.36,89.54,-1.89
17,9,39,-0.97,-0.27,-0.04,-33.26,85.57,-1.28
17,8,37,-0.96,-0.23,-0.04,-36.93,79.59,-1.28
17,8,36,-0.96,-0.23,-0.04,-38.51,75.01,-1.28
17,7,35,-0.91,-0.16,0,-38.51,75.01,-1.28
17,7,35,-0.89,-0.08,0.01,-38.7,71.04,-0.49
17,7,35,-0.89,0.02,0.02,-33.45,66.41,1.4
17,7,35,-0.89,0.06,0.05,-20.57,60.79,3.66
17,7,35,-0.89,0.06,0.05,-20.57,60.79,3.66
17,7,35,-0.92,0.07,0.08,-7.75,56.21,6.9
17,7,35,-0.99,0.06,0.07,-1.83,52.86,9.95
17,7,35,-1.02,0,0.03,-0.92,51.33,12.51
17,6,35,-1.02,0,0.03,-0.92,51.33,12.51
17,6,35,-1.09,-0.03,0,-1.34,48.22,14.47
17,6,35,-1.01,-0.21,0.06,2.44,44.8,17.27
17,5,35,-1.09,0.13,0.07,-4.76,48.71,19.1
17,5,35,-1.04,-0.13,0.26,-5.68,53.47,16.36
17,5,35,-1.04,-0.13,0.26,-5.68,53.47,16.36
16,5,35,-0.98,0.04,0.37,0.79,54.26,18.43
16,5,35,-0.91,0.1,0.43,-16.36,61.77,11.47
16,5,35,-0.89,0.09,0.41,-23.5,67.32,2.99
16,5,35,-0.89,0.09,0.41,-23.5,67.32,2.99
16,5,35,-0.86,0.09,0.4,-27.4,57.56,-2.69
16,5,35,-0.91,0,0.42,-28.56,38.02,-5.07
16,5,35,-0.92,0.02,0.37,-31.68,22.22,-9.95
16,5,35,-0.92,0.02,0.37,-36.99,8.54,-15.87
15,5,35,-0.9,0.07,0.34,-36.99,8.54,-15.87
15,4,35,-0.93,-0.1,0.35,-32.59,1.89,-17.27
15,4,35,-0.97,0.02,0.33,-37.6,-1.95,-19.35
15,3,35,-0.92,0.08,0.37,-37.41,-3.42,-19.17
14,2,35,-0.92,0.08,0.37,-29.11,-2.32,-17.94
14,2,35,-0.91,0.11,0.41,-29.11,-2.32,-17.94
14,1,35,-0.92,0.14,0.44,-17.88,0.55,-16.11
13,0,35,-0.91,0.12,0.5,0.73,4.88,-13.61
13,0,35,-1,0.01,0.6,19.78,6.53,-11.17
13,0,35,-1,0.01,0.6,19.78,6.53,-11.17
13,-1,35,-1,-0.04,0.64,30.4,6.84,-10.44
13,-1,35,-0.99,-0.1,0.69,32.78,2.75,-11.05
13,-1,35,-1.08,-0.11,0.67,27.65,-6.1,-11.84
13,-1,35,-1.08,-0.11,0.67,26.55,-16.85,-11.66
13,-1,35,-1.11,-0.24,0.78,26.55,-16.85,-11.66
13,-1,35,-1.16,-0.14,0.74,18.68,-23.07,-11.17
13,-2,35,-1.15,-0.08,0.75,15.38,-21.48,-11.17
13,-3,35,-1.24,-0.11,0.71,20.57,-11.96,-11.23
13,-5,35,-1.24,-0.11,0.71,23.5,-2.75,-10.19
12,-8,35,-1.25,-0.24,0.82,23.5,-2.75,-10.19
12,-11,35,-1.22,-0.13,0.73,10.99,3.72,-10.68
12,-12,33,-1.11,-0.1,0.61,-6.96,6.77,-15.08
11,-13,22,-1.04,-0.1,0.51,-13.67,3.23,-18.74
11,-13,10,-0.96,-0.08,0.44,-19.84,-1.34,-21.97
10,-13,-2,-0.96,-0.08,0.44,-19.84,-1.34,-21.97
10,-13,-13,-0.96,-0.06,0.4,-23.86,-8.12,-24.17
10,-13,-19,-0.96,-0.04,0.44,-27.47,-18.86,-26.31
9,-13,-22,-1.06,-0.04,0.47,-30.09,-30.03,-28.2
9,-13,-22,-1.21,0,0.58,-24.54,-37.11,-28.02
9,-14,-22,-1.16,-0.05,0.7,-14.53,-31.86,-26
9,-14,-22,-1.16,-0.05,0.7,-14.53,-31.86,-26
9,-14,-22,-1.2,-0.06,0.69,-11.47,-16.36,-26.55
8,-14,-22,-1.22,-0.05,0.62,-11.23,-7.75,-25.88
8,-15,-22,-1.2,-0.03,0.5,-10.74,-0.24,-24.54
8,-15,-22,-1.11,0.03,0.43,-13,7.69,-24.84
7,-15,-22,-1.11,0.03,0.43,-16.17,7.93,-25.51
7,-15,-22,-1.06,-0.02,0.37,-16.17,7.93,-25.51
6,-15,-22,-1.02,-0.05,0.4,-17.09,1.83,-26
6,-15,-22,-1.01,-0.04,0.41,-21.48,-4.58,-28.38
6,-15,-22,-1.05,-0.01,0.39,-31.13,-10.44,-31.07
5,-15,-22,-1.05,0.02,0.39,-38.45,-14.89,-33.08
5,-15,-22,-1.05,0.02,0.39,-37.72,-15.87,-34.55
5,-15,-22,-1.06,0.08,0.43,-37.72,-15.87,-34.55
4,-16,-22,-1.08,0.11,0.48,-30.27,-14.95,-34.67
4,-17,-22,-1.1,0.1,0.5,-21.85,-13.67,-34.48
4,-17,-22,-1.11,0.08,0.48,-16.11,-13.79,-33.57
4,-17,-22,-1.07,0.06,0.47,-11.17,-13.18,-32.9
4,-18,-22,-1.07,0.06,0.47,-11.17,-13.18,-32.9
4,-18,-22,-1.03,0.06,0.45,-7.32,-12.21,-32.41
4,-18,-22,-1.04,0.08,0.42,-4.76,-13.43,-31.74
3,-18,-21,-1.05,0.17,0.4,-1.65,-15.08,-29.66
3,-19,-21,-1.03,0.16,0.41,3.11,-15.14,-27.83
3,-19,-20,-1.03,0.16,0.41,8.3,-16.48,-25.88
3,-19,-19,-1.01,0.16,0.42,8.3,-16.48,-25.88
3,-19,-19,-1,0.13,0.45,12.76,-18.01,-24.23
2,-20,-18,-1,0.17,0.42,13.06,-20.08,-23.25
2,-20,-18,-0.94,0.18,0.4,12.76,-22.03,-22.16
2,-20,-17,-0.94,0.18,0.4,16.72,-24.11,-21.73
2,-21,-16,-0.9,0.18,0.41,16.72,-24.11,-21.73
1,-21,-14,-0.9,0.17,0.41,23.68,-28.14,-20.08
1,-21,-9,-0.91,0.13,0.42,32.41,-32.53,-19.41
0,-21,-6,-0.93,0.06,0.39,40.28,-34,-20.57
0,-21,-5,-0.96,0.01,0.3,40.1,-34.12,-23.07
0,-21,-5,-0.96,0.01,0.3,40.1,-34.12,-23.07
0,-21,-5,-0.96,-0.02,0.2,32.17,-35.46,-24.96
0,-21,-5,-0.93,-0.03,0.2,24.29,-38.64,-25.51
0,-21,-5,-0.88,-0.04,0.24,18.01,-44.86,-24.9
0,-21,-5,-0.84,0.02,0.26,13.73,-50.84,-23.62
0,-21,-5,-0.84,0.02,0.26,13.73,-50.84,-23.62
0,-21,-5,-0.81,0.03,0.26,13.55,-55.66,-21.79
0,-21,-5,-0.79,0.07,0.28,15.63,-59.75,-20.81
0,-21,-5,-0.78,0.12,0.28,15.32,-65,-20.81
0,-21,-5,-0.78,0.13,0.27,14.28,-70.19,-20.26
0,-21,-5,-0.78,0.13,0.27,14.65,-74.1,-19.04
0,-21,-5,-0.82,0.17,0.22,14.65,-74.1,-19.04
0,-21,-5,-0.83,0.19,0.19,16.97,-75.74,-17.33
0,-21,-5,-0.83,0.19,0.16,20.2,-76.17,-15.56
0,-20,-5,-0.84,0.16,0.13,21.97,-75.93,-13.55
0,-20,-5,-0.9,0.14,0.1,21.67,-77.76,-11.78
0,-20,-5,-0.9,0.14,0.1,21.67,-77.76,-11.78
-1,-20,-5,-0.89,0.14,0.11,20.51,-81.18,-9.77
-1,-20,-5,-0.88,0.14,0.11,21,-81.79,-6.71
-1,-20,-5,-0.89,0.12,0.11,26.49,-80.75,-2.08
-2,-20,-4,-0.89,0.16,0.12,33.63,-79.47,2.56
-2,-20,-4,-0.89,0.16,0.12,41.26,-79.96,6.71
-3,-20,-3,-0.9,0.16,0.14,41.26,-79.96,6.71
-3,-19,-1,-0.9,0.16,0.14,45.96,-79.9,8.54
-4,-18,2,-0.9,0.15,0.15,48.22,-77.94,9.09
-5,-17,3,-0.89,0.13,0.14,49.01,-76.78,9.46
-6,-16,4,-0.89,0.13,0.14,49.26,-76.66,10.19
-6,-15,4,-0.89,0.12,0.12,49.26,-76.66,10.19
-7,-15,5,-0.79,0.14,0.14,48.52,-76.97,9.83
-7,-14,6,-0.75,0.14,0.04,48.77,-75.13,11.96
-7,-14,6,-0.76,0.11,0,49.38,-75.68,14.65
-7,-14,6,-0.76,0.11,0,49.38,-75.68,14.65
-8,-14,6,-0.76,0.12,0.01,47.73,-76.23,15.69
-8,-14,6,-0.73,0.13,-0.01,47,-75.68,16.42
-8,-14,6,-0.73,0.13,-0.07,45.9,-78.61,17.33
-8,-13,6,-0.76,0.13,-0.13,46.81,-81.36,18.92
-8,-13,6,-0.76,0.13,-0.13,48.95,-82.15,20.94
-8,-13,6,-0.75,0.13,-0.17,48.95,-82.15,20.94
-9,-13,6,-0.78,0.16,-0.2,51.03,-82.28,22.4
-9,-13,6,-0.79,0.15,-0.21,50.9,-81.36,22.22
-9,-13,6,-0.8,0.13,-0.22,49.87,-79.77,21.18
-9,-13,6,-0.8,0.13,-0.22,48.95,-80.02,21.06
-9,-13,6,-0.81,0.07,-0.23,48.95,-80.02,21.06
-9,-13,6,-0.8,0.03,-0.24,48.89,-78.67,21.85
-9,-13,5,-0.79,0.03,-0.26,50.66,-75.5,23.8
-9,-12,5,-0.77,0.02,-0.26,53.47,-72.57,25.21
-9,-12,5,-0.79,0.04,-0.29,54.75,-72.88,26.18
-9,-11,5,-0.79,0.04,-0.29,54.75,-72.88,26.18
-9,-11,5,-0.79,0.03,-0.28,56.64,-71.96,26.31
-9,-10,5,-0.83,0.02,-0.28,59.57,-69.64,27.28
-9,-9,5,-0.88,0.04,-0.26,58.65,-67.2,27.22
-9,-8,4,-0.89,0.03,-0.23,55.48,-61.46,25.82
-8,-8,2,-0.89,0.03,-0.23,55.48,-61.46,25.82
-7,-7,2,-0.91,0,-0.22,51.51,-53.47,24.05
-7,-7,2,-0.92,-0.02,-0.22,46.14,-46.45,22.64
-6,-6,2,-0.91,-0.04,-0.2,40.95,-41.38,21.79
-6,-6,2,-0.9,-0.03,-0.22,35.58,-36.44,21.3
-6,-6,2,-0.9,-0.03,-0.22,31.37,-32.65,21.12
-6,-5,2,-0.89,-0.02,-0.23,31.37,-32.65,21.12
-6,-5,2,-0.89,0.01,-0.25,27.28,-30.52,20.2
-5,-3,2,-0.87,0.02,-0.28,22.46,-28.75,18.31
-5,-3,2,-0.87,0,-0.31,18.98,-26.61,16.48
-5,-2,2,-0.87,0,-0.31,16.91,-23.07,15.32
-5,-2,2,-0.87,-0.01,-0.34,16.91,-23.07,15.32
-4,-2,2,-0.86,-0.04,-0.36,17.33,-19.04,14.83
-4,-1,2,-0.87,-0.05,-0.4,18.25,-15.99,14.95
-4,-1,2,-0.88,-0.08,-0.42,18.92,-14.22,14.95
-3,-1,2,-0.89,-0.07,-0.42,20.57,-11.66,15.32
-3,-1,2,-0.89,-0.07,-0.42,20.57,-11.66,15.32
-3,-1,2,-0.92,-0.06,-0.43,22.22,-9.77,17.15
-3,0,2,-0.94,-0.05,-0.43,23.62,-8.54,18.8
-3,0,2,-0.96,-0.03,-0.4,25.09,-6.65,20.14
-3,1,2,-0.98,-0.01,-0.37,25.51,-4.7,20.69
-3,2,2,-0.98,-0.01,-0.37,25.63,-2.93,20.63
-3,2,2,-1.02,0.01,-0.34,25.63,-2.93,20.63
-3,3,2,-1.04,0.03,-0.32,25.45,-0.85,19.65
-3,3,2,-1.05,0.04,-0.32,24.17,2.14,17.94
-3,3,2,-1.05,0.03,-0.31,22.64,4.27,16.48
-3,3,2,-1.05,0.03,-0.31,22.64,4.27,16.48
-3,3,2,-1.05,0.03,-0.32,21.42,5.74,14.89
-3,4,2,-1.06,0.03,-0.34,20.26,6.47,13.55
-2,4,2,-1.06,0.02,-0.35,18.49,6.96,12.63
-2,4,2,-1.07,0.01,-0.37,17.64,7.75,12.02
-2,6,2,-1.07,0.01,-0.37,17.64,7.75,12.02
-2,7,2,-1.07,0,-0.37,17.03,9.16,12.7
-1,9,2,-1.08,0,-0.37,17.27,11.78,13.55
-1,9,2,-1.08,-0.02,-0.35,18.19,14.77,14.65
-1,10,2,-1.08,-0.02,-0.35,18.8,18.13,15.69
-1,11,2,-1.08,-0.02,-0.33,18.8,18.13,15.69
-1,12,2,-1.09,-0.02,-0.32,18.62,21.36,16.24
-1,12,2,-1.09,-0.02,-0.3,18.55,25.15,16.48
-1,12,2,-1.09,-0.01,-0.29,17.76,29.11,16.3
-1,12,2,-1.09,-0.01,-0.29,16.91,32.17,15.87
0,12,2,-1.08,0,-0.28,16.91,32.17,15.87
0,12,2,-1.07,0.01,-0.27,16.72,34.85,15.01
0,12,2,-1.06,0.01,-0.26,17.15,38.33,13.98
0,12,2,-1.05,0.02,-0.25,17.46,40.89,12.57
0,12,2,-1.05,0.02,-0.25,17.46,40.89,12.57
0,12,2,-1.04,0.03,-0.25,16.42,42.3,10.8
0,13,2,-1.03,0.04,-0.26,14.1,42.48,8.73
-1,13,2,-1,0.04,-0.26,11.9,41.93,6.77
-1,13,2,-1,0.04,-0.26,11.9,41.93,6.77
-1,13,2,-0.98,0.03,-0.27,9.77,40.22,4.82
-1,14,2,-0.96,0.04,-0.29,8.97,37.84,4.39
-1,14,2,-0.92,0.02,-0.3,10.99,38.94,3.72
-1,14,1,-0.92,0.02,-0.3,11.23,33.51,4.09
-1,14,-13,-0.9,0.04,-0.31,11.23,33.51,4.09
-1,14,-28,-0.9,0.04,-0.31,14.47,27.83,5.37
-2,14,-38,-0.9,0.05,-0.31,19.29,27.77,6.53
-2,14,-45,-0.89,0.04,-0.29,25.15,28.2,7.81
-2,14,-51,-0.89,0.04,-0.29,25.15,28.2,7.81
-2,14,-56,-0.91,0.03,-0.27,29.6,26.67,9.34
-2,14,-61,-0.93,0.04,-0.25,32.53,25.33,10.44
-2,14,-62,-0.95,0.06,-0.23,35.34,24.6,11.54
-2,14,-62,-0.96,0.06,-0.21,38.21,24.23,12.33
-2,14,-62,-0.96,0.06,-0.21,38.21,24.23,12.33
-2,14,-62,-0.96,0.06,-0.2,39.49,22.77,12.76
-2,14,-62,-0.96,0.06,-0.19,37.54,19.29,12.88
-2,14,-62,-0.96,0.07,-0.2,36.5,14.95,13.31
-2,14,-63,-0.95,0.07,-0.2,37.48,11.47,14.47
-3,14,-63,-0.95,0.07,-0.2,37.48,11.47,14.47
-3,14,-63,-0.95,0.1,-0.19,41.14,9.4,16.6
-3,14,-63,-0.96,0.1,-0.16,47.3,8.3,19.59
-3,14,-63,-0.96,0.09,-0.14,52.06,8.42,22.28
-3,13,-63,-0.95,0.11,-0.12,55.48,9.22,24.72
-3,13,-63,-0.95,0.11,-0.12,55.48,9.22,24.72
-3,13,-63,-0.93,0.09,-0.11,57.86,9.95,26.49
-3,13,-63,-0.96,0.08,-0.13,58.78,10.5,28.08
-3,13,-63,-0.98,0.07,-0.16,59.81,10.74,30.03
-3,13,-63,-0.98,0.09,-0.21,61.34,13.49,31.56
-4,13,-63,-0.98,0.09,-0.21,61.34,13.49,31.56
-4,13,-63,-0.99,0.08,-0.26,62.74,16.17,32.41
-4,13,-63,-1.03,0.06,-0.3,65.49,15.44,33.81
-4,13,-63,-1.06,0.03,-0.33,68.66,12.7,34.85
-4,13,-63,-1.08,0.01,-0.35,71.04,9.28,35.4
-4,13,-63,-1.08,0.01,-0.35,71.04,9.28,35.4
-4,13,-63,-1.09,0,-0.34,75.38,5.19,36.44
-4,13,-63,-1.1,-0.03,-0.33,80.2,0.55,37.48
-4,13,-63,-1.12,-0.07,-0.28,85.88,-3.48,39.06
-4,13,-63,-1.14,-0.12,-0.21,91.43,-5.98,40.71
-3,13,-63,-1.14,-0.12,-0.21,91.43,-5.98,40.71
-3,13,-63,-1.15,-0.15,-0.15,92.35,-5.86,41.26
-3,13,-63,-1.12,-0.2,-0.08,89.42,-4.27,40.28
-3,13,-63,-1.09,-0.22,-0.04,84.78,-1.71,39
-3,13,-63,-1.07,-0.21,-0.01,80.99,0.85,37.6
-3,13,-63,-1.07,-0.21,-0.01,77.39,4.27,35.95
-3,13,-63,-1.02,-0.22,0,77.39,4.27,35.95
-3,13,-63,-0.99,-0.22,0.01,74.04,8.06,34.42
-3,13,-63,-0.93,-0.21,0.01,70.92,12.39,32.9
-3,13,-63,-0.88,-0.2,0,68.6,16.24,31.43
-3,13,-63,-0.88,-0.2,0,68.6,16.24,31.43
-2,12,-62,-0.85,-0.19,-0.02,67.93,19.59,29.97
-1,12,-62,-0.82,-0.21,-0.06,67.57,22.83,28.32
0,11,-62,-0.82,-0.2,-0.11,68.3,24.66,26.92
1,11,-62,-0.83,-0.21,-0.15,71.41,25.45,25.82
2,11,-62,-0.83,-0.21,-0.15,71.41,25.45,25.82
3,11,-62,-0.87,-0.23,-0.19,75.93,25.51,24.96
4,11,-61,-0.89,-0.22,-0.21,80.75,24.41,24.05
5,11,-61,-0.94,-0.19,-0.23,85.69,22.71,23.25
5,11,-61,-0.97,-0.19,-0.22,90.27,20.69,21.67
6,11,-61,-0.97,-0.19,-0.22,90.27,20.69,21.67
6,11,-61,-1.01,-0.2,-0.19,93.87,16.66,19.29
6,11,-61,-1.05,-0.21,-0.13,96.13,10.44,16.54
6,11,-61,-1.07,-0.21,-0.07,96.13,4.15,13.18
6,11,-60,-1.1,-0.23,-0.02,94.54,-0.85,10.01
6,11,-60,-1.1,-0.23,-0.02,94.54,-0.85,10.01
7,11,-60,-1.12,-0.26,0.01,92.04,-3.6,7.39
7,11,-60,-1.15,-0.28,0.04,88.01,-3.36,5.68
8,11,-60,-1.13,-0.29,0.05,83.25,0.73,4.33
8,11,-60,-1.13,-0.29,0.05,77.45,6.53,3.66
8,11,-60,-1.11,-0.31,0.05,77.45,6.53,3.66
8,11,-60,-1.09,-0.31,0.03,71.17,11.96,2.81
8,11,-60,-1.05,-0.31,-0.01,64.51,16.97,2.2
9,10,-60,-1,-0.29,-0.06,59.39,21.42,1.77
9,10,-60,-1,-0.29,-0.06,59.39,21.42,1.77
9,10,-59,-0.95,-0.28,-0.11,56.95,24.78,1.59
9,10,-59,-0.91,-0.27,-0.17,57.31,25.88,1.77
10,10,-59,-0.87,-0.25,-0.22,58.84,26,2.5
10,10,-59,-0.84,-0.24,-0.26,62.13,26.67,3.05
11,10,-59,-0.84,-0.24,-0.26,62.13,26.67,3.05
13,10,-59,-0.82,-0.23,-0.28,67.26,24.72,3.72
14,10,-59,-0.8,-0.23,-0.28,72.27,20.08,4.33
14,10,-59,-0.8,-0.23,-0.27,76.42,14.77,4.52
15,10,-58,-0.8,-0.23,-0.27,80.32,9.83,4.39
15,10,-58,-0.81,-0.24,-0.25,80.32,9.83,4.39
15,10,-58,-0.83,-0.25,-0.21,83.37,6.41,3.91
16,10,-57,-0.86,-0.26,-0.17,84.96,3.97,3.17
16,10,-57,-0.88,-0.26,-0.14,84.17,3.23,2.2
16,10,-56,-0.88,-0.26,-0.14,84.17,3.23,2.2
16,10,-56,-0.89,-0.25,-0.12,83.13,2.99,1.1
16,10,-56,-0.92,-0.26,-0.11,82.46,2.2,-0.12
16,10,-55,-0.94,-0.27,-0.11,81.42,2.81,-1.28
16,10,-55,-0.95,-0.29,-0.11,80.32,3.91,-2.26
16,10,-55,-0.95,-0.29,-0.11,77.94,5,-3.3
16,10,-55,-0.95,-0.32,-0.11,77.94,5,-3.3
16,10,-54,-0.96,-0.33,-0.13,74.4,5.62,-3.97
16,10,-53,-0.95,-0.34,-0.15,70.8,5.92,-4.94
16,10,-52,-0.96,-0.35,-0.17,68.66,5.55,-5.37
16,10,-49,-0.96,-0.35,-0.17,70.01,6.65,-5
16,10,-46,-0.96,-0.36,-0.18,70.01,6.65,-5
16,10,-43,-0.97,-0.37,-0.17,71.66,8,-4.58
16,10,-41,-0.98,-0.37,-0.16,68.73,8.12,-5.25
17,10,-39,-0.96,-0.39,-0.15,64.94,6.71,-6.65
17,10,-36,-0.96,-0.39,-0.15,59.69,8.12,-7.63
17,10,-34,-0.97,-0.4,-0.15,59.69,8.12,-7.63
17,9,-31,-0.95,-0.4,-0.13,55.54,9.83,-8.54
17,9,-29,-0.95,-0.4,-0.15,51.76,8.67,-9.52
17,9,-28,-0.95,-0.39,-0.15,48.46,7.2,-10.31
17,9,-26,-0.95,-0.39,-0.15,46.81,8.12,-10.68
18,9,-25,-0.94,-0.37,-0.14,46.81,8.12,-10.68
18,9,-22,-0.92,-0.39,-0.14,45.17,9.46,-10.8
19,9,-16,-0.91,-0.39,-0.13,43.15,11.05,-11.29
20,8,-10,-0.92,-0.38,-0.13,42.18,10.8,-11.35
21,8,-6,-0.92,-0.38,-0.13,40.41,11.41,-11.9
21,8,-2,-0.92,-0.37,-0.13,40.41,11.41,-11.9
21,8,1,-0.91,-0.36,-0.12,38.76,11.35,-12.63
21,8,3,-0.9,-0.33,-0.12,37.23,9.77,-13.37
21,8,5,-0.91,-0.31,-0.12,35.52,6.84,-13.85
21,8,7,-0.91,-0.31,-0.12,33.87,5.07,-14.77
21,8,7,-0.91,-0.28,-0.12,33.87,5.07,-14.77
21,8,8,-0.94,-0.26,-0.14,32.9,2.99,-15.32
21,8,8,-0.98,-0.24,-0.17,32.23,0.98,-15.69
21,8,8,-1.06,-0.21,-0.22,32.78,1.1,-15.75
21,8,8,-1.06,-0.21,-0.22,32.78,1.1,-15.75
21,8,8,-1.14,-0.19,-0.28,34.42,2.26,-15.32
21,8,8,-1.21,-0.09,-0.31,34.36,2.26,-14.16
21,8,8,-1.22,-0.01,-0.33,35.46,-0.79,-10.62
21,8,8,-1.2,0,-0.35,39,-1.04,-10.07
21,8,8,-1.2,0,-0.35,39,-1.04,-10.07
21,8,8,-1.23,0.05,-0.33,46.69,-13,-6.96
21,8,8,-1.28,0.02,-0.26,57.5,-32.71,-3.42
21,8,8,-1.31,0.13,-0.18,62.38,-49.5,-0.92
21,8,8,-1.28,0.1,-0.08,71.17,-57.98,1.71
21,8,8,-1.28,0.1,-0.08,71.17,-57.98,1.71
21,8,8,-1.23,0.05,0.02,82.28,-57.5,4.33
21,8,8,-1.15,-0.02,0.12,87.22,-54.75,6.23
20,8,8,-1.09,-0.06,0.18,87.1,-52.31,7.81
20,8,8,-1.09,-0.06,0.18,84.96,-47.61,9.22
20,8,8,-1.02,-0.11,0.22,84.96,-47.61,9.22
20,8,8,-0.95,-0.13,0.22,79.1,-39.12,10.07
20,8,8,-0.9,-0.13,0.16,67.87,-29.72,10.19
20,8,8,-0.85,-0.09,0.08,54.57,-18.8,8.85
20,8,8,-0.85,-0.09,0.08,54.57,-18.8,8.85
20,8,8,-0.83,-0.07,0,47.12,-9.46,8.54
19,8,8,-0.81,-0.02,-0.08,47.12,-3.17,9.4
19,8,8,-0.82,0.02,-0.15,50.54,1.59,10.62
19,8,8,-0.85,0.04,-0.21,54.81,3.42,11.78
19,8,8,-0.85,0.04,-0.21,54.81,3.42,11.78
19,8,8,-0.9,0.08,-0.26,61.4,0.98,13.37
18,8,8,-0.97,0.11,-0.28,71.72,-3.85,15.38
18,8,8,-1.05,0.14,-0.27,80.99,-10.13,15.93
18,8,8,-1.05,0.14,-0.27,85.69,-19.53,15.01
18,8,8,-1.11,0.15,-0.25,85.69,-19.53,15.01
18,8,8,-1.15,0.16,-0.21,88.13,-32.17,14.53
18,8,8,-1.2,0.16,-0.15,87.04,-45.29,13.37
17,8,8,-1.24,0.13,-0.08,87.4,-55.3,12.7
17,8,8,-1.24,0.13,-0.08,87.4,-55.3,12.7
16,8,8,-1.27,0.1,-0.01,87.46,-59.75,13
14,8,8,-1.28,0.08,0.06,86.67,-57.92,13.73
13,8,8,-1.27,0.05,0.12,83.98,-50.17,14.47
13,8,8,-1.27,0.05,0.12,80.44,-38.15,15.44
13,8,8,-1.25,0.03,0.15,80.44,-38.15,15.44
12,8,8,-1.22,0.03,0.15,75.81,-26.55,15.87
12,8,8,-1.2,0.04,0.13,69.64,-13.73,15.87
12,8,8,-1.16,0.06,0.06,62.74,-1.16,14.4
11,8,8,-1.16,0.06,0.06,62.74,-1.16,14.4
11,8,8,-1.12,0.09,-0.04,56.82,9.46,12.57
10,7,8,-1.07,0.12,-0.15,53.89,17.64,11.41
9,7,8,-1.04,0.14,-0.25,56.95,25.21,11.29
9,8,8,-1.04,0.14,-0.25,64.88,31.37,11.35
8,8,8,-0.98,0.14,-0.33,64.88,31.37,11.35
8,8,8,-0.95,0.13,-0.42,73.36,34.18,11.9
8,8,8,-0.92,0.11,-0.45,82.52,34.79,12.02
8,8,8,-0.9,0.1,-0.47,91.06,34.12,11.9
7,8,8,-0.9,0.1,-0.47,91.06,34.12,11.9
7,8,8,-0.87,0.07,-0.46,98.45,32.47,11.23
6,8,8,-0.86,0.03,-0.45,103.39,28.44,9.95
6,8,8,-0.87,-0.02,-0.43,106.32,23.32,8.73
6,8,8,-0.87,-0.02,-0.43,107.91,18.8,8.18
6,8,8,-0.88,-0.03,-0.42,107.91,18.8,8.18
6,8,8,-0.89,-0.04,-0.39,108.52,15.63,7.75
6,9,8,-0.91,-0.05,-0.37,110.23,15.32,7.32
6,10,8,-0.93,-0.07,-0.34,112.06,14.53,7.32
6,10,8,-0.93,-0.07,-0.34,112.06,14.53,7.32
6,10,8,-0.95,-0.09,-0.31,111.63,14.59,7.39
6,10,8,-0.97,-0.1,-0.3,109.31,15.81,7.2
6,10,8,-0.98,-0.09,-0.3,107.18,17.09,6.77
6,10,8,-0.99,-0.1,-0.3,105.77,18.25,6.29
6,10,8,-0.99,-0.1,-0.3,105.77,18.25,6.29
6,11,9,-1,-0.11,-0.3,104.25,18.86,5.74
6,11,10,-1,-0.11,-0.31,102.48,18.49,5.37
6,11,11,-0.99,-0.11,-0.31,100.52,18.19,5
6,11,12,-0.99,-0.11,-0.31,100.52,18.19,5
6,12,16,-0.99,-0.1,-0.31,98.51,17.94,4.7
6,14,23,-0.99,-0.12,-0.3,97.17,17.94,5.07
6,15,31,-0.99,-0.11,-0.3,95.4,18.68,5.49
6,16,36,-1,-0.12,-0.3,94.48,19.71,6.04
6,16,40,-1,-0.12,-0.3,94.48,19.71,6.04
6,16,42,-1,-0.13,-0.29,93.99,20.45,6.9
6,16,43,-0.98,-0.15,-0.29,91.92,21.48,7.57
6,16,43,-0.98,-0.14,-0.29,89.29,21.85,8.12
6,16,44,-0.98,-0.14,-0.29,86.49,21.48,8.36
7,16,44,-0.96,-0.15,-0.29,86.49,21.48,8.36
7,16,45,-0.97,-0.16,-0.29,83.56,21,8.54
7,17,45,-0.95,-0.16,-0.31,78.31,20.14,8.79
7,17,45,-0.93,-0.14,-0.32,73,18.8,9.09
7,17,46,-0.93,-0.14,-0.32,73,18.8,9.09
7,17,47,-0.92,-0.12,-0.32,69.27,16.17,9.28
7,17,48,-0.92,-0.13,-0.31,66.59,13.79,9.83
7,17,49,-0.92,-0.13,-0.3,64.27,12.88,10.62
7,17,49,-0.92,-0.13,-0.3,61.95,11.23,11.54
7,17,50,-0.92,-0.13,-0.32,61.95,11.23,11.54
7,17,50,-0.91,-0.1,-0.33,59.39,8.48,12.02
7,17,51,-0.92,-0.08,-0.32,58.47,5.98,12.7
7,17,51,-0.94,-0.06,-0.31,58.84,4.15,13.43
7,18,51,-0.94,-0.06,-0.31,58.84,4.15,13.43
7,18,51,-0.94,-0.03,-0.28,58.23,1.77,13.98
7,18,51,-0.94,-0.02,-0.25,57.25,-1.65,14.28
7,18,51,-0.94,-0.02,-0.23,56.95,-3.97,14.53
7,18,51,-0.94,-0.02,-0.23,54.93,-5.55,13.98
7,17,52,-0.94,-0.02,-0.23,54.93,-5.55,13.98
7,17,52,-0.93,-0.02,-0.24,52.73,-6.59,13.49
7,17,52,-0.93,-0.01,-0.25,52.8,-7.14,13.67
7,17,52,-0.95,0,-0.26,54.63,-6.84,14.71
6,17,52,-0.99,0.01,-0.27,55.97,-6.59,15.75
6,17,52,-0.99,0.01,-0.27,55.97,-6.59,15.75
6,17,52,-1.1,0.02,-0.31,55.48,-6.71,16.3
5,17,52,-1.24,0.02,-0.38,56.21,-6.1,16.42
5,17,52,-1.36,0.03,-0.45,60.06,-4.58,16.42
4,17,52,-1.36,0.03,-0.45,67.32,-5.92,16.78
4,17,52,-1.41,0.04,-0.48,67.32,-5.92,16.78
3,17,52,-1.42,0.03,-0.44,76.11,-13.79,17.76
3,17,52,-1.4,0,-0.34,84.11,-28.93,18.55
3,17,52,-1.37,-0.08,-0.21,89.9,-45.04,19.29
3,17,52,-1.37,-0.08,-0.21,89.9,-45.04,19.29
3,17,52,-1.34,-0.14,-0.07,92.1,-54.75,20.14
3,17,52,-1.3,-0.21,0.06,94.48,-58.84,21.48
3,17,52,-1.23,-0.26,0.18,99.06,-54.14,24.23
3,17,52,-1.23,-0.26,0.18,103.58,-38.51,27.83
3,17,52,-1.18,-0.29,0.23,103.58,-38.51,27.83
3,17,52,-1.08,-0.34,0.27,101.68,-19.47,29.36
3,17,52,-1,-0.34,0.26,88.38,-2.93,27.28
3,17,52,-0.91,-0.32,0.22,69.89,11.23,23.13
3,17,52,-0.91,-0.32,0.22,52.37,24.54,18.37
3,17,52,-0.88,-0.29,0.13,52.37,24.54,18.37
3,17,52,-0.85,-0.24,0.02,36.68,35.4,13.67
3,17,52,-0.81,-0.17,-0.1,27.83,44.62,10.44
3,17,52,-0.78,-0.1,-0.22,33.02,51.57,9.83
3,17,52,-0.78,-0.1,-0.22,33.02,51.57,9.83
3,17,52,-0.79,-0.04,-0.32,49.01,52.61,12.02
3,17,52,-0.8,-0.04,-0.37,63.48,50.29,13.61
3,17,52,-0.8,-0.01,-0.42,73.49,45.65,13.06
3,17,52,-0.8,-0.01,-0.42,73.49,45.65,13.06
3,17,52,-0.83,-0.02,-0.48,82.34,33.39,11.84
3,17,52,-0.87,-0.08,-0.5,90.7,13,10.25
3,17,52,-0.94,-0.17,-0.49,97.9,-7.93,9.16
3,17,52,-1.01,-0.21,-0.43,104.92,-22.09,10.62
3,17,52,-1.01,-0.21,-0.43,104.92,-22.09,10.62
3,17,52,-1.06,-0.29,-0.3,113.89,-27.22,12.88
3,17,52,-1.09,-0.36,-0.17,119.08,-28.44,15.14
3,17,52,-1.11,-0.4,-0.05,114.93,-28.93,16.11
3,17,52,-1.14,-0.39,0.05,105.65,-26.12,16.42
3,17,52,-1.14,-0.39,0.05,105.65,-26.12,16.42
3,17,52,-1.13,-0.39,0.11,98.21,-17.58,16.91
3,17,52,-1.16,-0.36,0.13,85.02,-8.91,15.99
4,17,52,-1.14,-0.31,0.18,65.25,1.77,13.18
4,17,52,-1.14,-0.31,0.18,65.25,1.77,13.18
4,17,52,-1.08,-0.34,0.17,46.94,13.12,9.52
5,17,52,-1.03,-0.33,0.11,29.6,19.65,4.7
6,16,52,-0.96,-0.31,0.01,11.6,21.97,0.49
7,16,52,-0.96,-0.31,0.01,1.4,24.96,-2.08
8,16,52,-0.89,-0.3,-0.14,1.4,24.96,-2.08
9,16,52,-0.81,-0.3,-0.29,-0.67,28.93,-3.17
10,16,52,-0.73,-0.28,-0.43,-0.73,31.74,-4.15
10,16,52,-0.72,-0.24,-0.52,0.92,32.53,-4.7
10,16,52,-0.72,-0.24,-0.52,9.64,29.79,-4.58
11,16,52,-0.72,-0.23,-0.53,9.64,29.79,-4.58
11,16,52,-0.71,-0.23,-0.52,18.25,23.62,-4.27
12,16,52,-0.72,-0.23,-0.47,20.32,16.17,-4.52
13,16,52,-0.78,-0.27,-0.38,22.64,7.75,-4.58
13,16,52,-0.78,-0.27,-0.38,24.35,5.43,-3.72
14,16,52,-0.82,-0.25,-0.29,24.35,5.43,-3.72
14,16,52,-0.84,-0.25,-0.25,25.57,8,-3.54
14,16,52,-0.88,-0.27,-0.19,28.93,7.69,-3.66
15,16,52,-0.92,-0.31,-0.15,26.86,7.08,-4.33
15,16,52,-0.92,-0.31,-0.15,26.86,7.08,-4.33
16,16,51,-0.95,-0.31,-0.14,19.65,7.45,-5.74
16,16,51,-0.98,-0.31,-0.15,12.63,9.89,-6.84
17,16,51,-0.99,-0.32,-0.17,7.45,13.24,-7.93
17,16,51,-0.99,-0.32,-0.2,1.89,14.95,-9.52
17,16,51,-0.99,-0.32,-0.2,1.89,14.95,-9.52
17,16,51,-0.98,-0.32,-0.23,-2.99,14.16,-11.17
17,16,51,-0.96,-0.34,-0.24,-4.7,12.02,-12.02
17,16,51,-0.94,-0.37,-0.24,-5.55,10.93,-12.02
17,16,50,-0.93,-0.37,-0.25,-9.22,9.64,-12.57
17,16,50,-0.93,-0.37,-0.25,-12.45,8.18,-13.12
18,16,50,-0.92,-0.37,-0.24,-12.45,8.18,-13.12
18,16,49,-0.93,-0.36,-0.23,-13.98,6.96,-13.06
18,16,47,-0.93,-0.36,-0.22,-13.92,6.16,-12.76
18,15,45,-0.94,-0.34,-0.21,-13.67,4.82,-12.08
18,15,43,-0.93,-0.33,-0.21,-12.94,4.46,-11.72
18,15,41,-0.93,-0.33,-0.21,-12.94,4.46,-11.72
18,14,40,-0.96,-0.3,-0.21,-11.35,4.46,-10.74
18,14,40,-0.99,-0.24,-0.24,-11.35,2.26,-10.56
18,14,40,-1.07,-0.2,-0.29,-8.24,0,-9.89
18,14,40,-1.19,-0.14,-0.35,-2.5,-0.31,-8.18
18,14,40,-1.19,-0.14,-0.35,-2.5,-0.31,-8.18
18,14,40,-1.35,-0.08,-0.42,3.05,0.73,-5.98
18,14,40,-1.53,0.12,-0.45,6.96,0.98,-2.62
18,14,40,-1.52,0.19,-0.44,11.41,5.92,1.77
18,14,40,-1.51,0.3,-0.38,18.98,0.18,6.1
18,14,40,-1.51,0.3,-0.38,18.98,0.18,6.1
18,14,40,-1.54,0.33,-0.24,28.75,-25.27,10.8
18,14,40,-1.48,0.26,-0.06,38.76,-55.54,13.61
18,14,40,-1.46,0.07,0.08,44.92,-77.03,14.28
18,14,40,-1.46,0.07,0.08,44.92,-77.03,14.28
17,14,40,-1.39,-0.06,0.13,45.23,-86,14.47
17,14,40,-1.3,-0.12,0.2,45.72,-82.21,15.08
17,14,40,-1.18,-0.27,0.24,44.62,-70.13,15.2
17,14,40,-1.1,-0.33,0.27,30.03,-55.11,13.67
17,14,40,-1.1,-0.33,0.27,30.03,-55.11,13.67
17,14,40,-1.03,-0.3,0.28,7.14,-43.33,11.84
17,14,40,-0.95,-0.26,0.29,-11.66,-29.91,10.25
17,14,40,-0.85,-0.23,0.29,-25.57,-14.95,8
17,14,40,-0.85,-0.23,0.29,-35.4,-4.64,6.23
17,14,40,-0.78,-0.25,0.28,-35.4,-4.64,6.23
17,14,40,-0.75,-0.24,0.21,-42.72,3.85,5.13
17,13,38,-0.77,-0.15,0.14,-48.16,11.17,4.15
17,13,36,-0.8,-0.06,0.05,-47.97,16.24,4.27
17,13,35,-0.8,-0.06,0.05,-47.97,16.24,4.27
17,13,34,-0.83,0.05,-0.04,-42.72,22.09,5.31
17,13,33,-0.86,0.15,-0.12,-32.35,26.55,7.26
17,13,32,-0.9,0.21,-0.16,-19.65,25.57,9.46
17,13,32,-0.96,0.26,-0.16,-9.77,19.29,11.29
17,13,31,-0.96,0.26,-0.16,-9.77,19.29,11.29
17,13,31,-1,0.31,-0.16,-7.87,11.05,10.62
17,13,31,-1.05,0.33,-0.13,-11.84,0,8.48
17,13,30,-1.08,0.33,-0.09,-16.85,-13.24,5
17,13,30,-1.08,0.33,-0.09,-21.91,-27.22,1.34
17,13,30,-1.07,0.31,-0.07,-21.91,-27.22,1.34
17,13,30,-1.05,0.31,-0.06,-24.66,-38.09,-1.28
16,12,30,-1.04,0.26,-0.06,-21,-45.65,-1.83
15,12,30,-1.05,0.2,-0.04,-12.02,-47.49,-1.1
14,12,30,-1.05,0.2,-0.04,-2.38,-42.72,1.77
13,12,30,-1.08,0.13,-0.03,-2.38,-42.72,1.77
13,12,29,-1.09,0.08,-0.02,5.55,-30.94,4.76
13,11,28,-1.12,0.06,-0.02,11.72,-17.09,7.69
13,10,27,-1.13,0.1,-0.05,13.98,-6.1,9.83
13,10,27,-1.13,0.1,-0.05,13.98,-6.1,9.83
13,9,26,-1.11,0.09,-0.09,18.49,2.93,10.8
12,8,26,-1.06,0.1,-0.15,23.01,10.86,11.17
12,8,26,-1.06,0.11,-0.22,28.08,15.5,11.78
12,9,26,-1.06,0.11,-0.22,36.38,18.8,12.08
11,9,26,-1.03,0.09,-0.24,36.38,18.8,12.08
9,9,26,-1,0.04,-0.25,44.37,20.94,11.96
8,9,26,-0.99,-0.01,-0.24,49.44,20.81,11.66
8,9,26,-0.98,-0.05,-0.25,50.23,19.47,10.25
8,9,26,-0.98,-0.05,-0.25,50.23,19.47,10.25
7,9,26,-0.97,-0.08,-0.25,47.97,19.1,8.18
7,9,26,-0.96,-0.1,-0.25,45.9,19.04,6.29
7,9,26,-0.96,-0.09,-0.25,44.01,20.14,4.64
7,9,26,-0.94,-0.08,-0.22,43.33,22.64,3.36
7,10,26,-0.94,-0.08,-0.22,43.33,22.64,3.36
7,10,26,-0.91,-0.1,-0.21,41.81,25.57,2.2
7,11,26,-0.88,-0.09,-0.23,37.9,26.61,1.34
7,12,26,-0.86,-0.09,-0.25,36.62,24.29,0.79
7,12,27,-0.86,-0.09,-0.25,37.96,20.32,1.83
7,12,28,-0.88,-0.08,-0.26,37.96,20.32,1.83
6,13,30,-0.9,-0.04,-0.25,39.79,18.37,2.81
6,13,31,-0.9,-0.01,-0.23,41.32,18.43,3.91
6,13,31,-0.91,0,-0.2,43.46,17.94,4.88
6,13,31,-0.91,0,-0.2,43.46,17.94,4.88
6,13,31,-0.91,0.01,-0.17,45.17,15.87,5.68
6,13,31,-0.92,0.02,-0.15,45.78,14.4,6.35
6,13,31,-0.9,0.01,-0.15,45.47,14.1,6.96
5,13,31,-0.9,0.01,-0.15,44.43,13,7.32
5,13,31,-0.9,0.02,-0.16,44.43,13,7.32
5,13,31,-0.9,0,-0.17,43.95,12.02,8.06
5,13,31,-0.9,0,-0.19,43.27,13.43,9.22
4,13,31,-0.88,0.01,-0.23,42.91,14.47,10.56
2,13,31,-0.88,0.01,-0.23,42.91,14.47,10.56
1,13,30,-0.87,0.01,-0.25,44.31,12.63,12.45
0,13,17,-0.88,0.03,-0.27,46.02,9.89,14.53
0,13,11,-0.88,0.05,-0.27,48.71,7.14,16.42
0,13,8,-0.88,0.05,-0.27,48.71,7.14,16.42
0,13,6,-0.88,0.04,-0.27,52.06,4.39,17.82
0,13,4,-0.89,0.04,-0.28,54.75,0.24,18.68
0,13,3,-0.91,0.04,-0.29,57.5,-4.64,19.84
0,13,1,-0.91,0.04,-0.29,60.3,-7.81,20.69
0,13,0,-0.94,0.04,-0.3,60.3,-7.81,20.69
0,14,-3,-0.95,0.04,-0.32,61.52,-10.19,21.06
-1,14,-9,-0.96,0.05,-0.33,62.32,-13.24,21.12
-1,15,-25,-0.96,0.05,-0.31,64.51,-17.76,21.3
-2,15,-39,-0.96,0.05,-0.31,67.2,-21.91,21.48
-2,16,-47,-0.99,0.05,-0.28,67.2,-21.91,21.48
-2,16,-50,-1.06,0.05,-0.26,69.64,-24.9,21.85
-2,15,-53,-1.22,0.05,-0.28,74.04,-25.88,22.64
-2,15,-55,-1.41,0.02,-0.33,80.63,-22.46,23.5
-2,15,-56,-1.41,0.02,-0.33,86.24,-16.05,23.86
-2,15,-56,-1.56,-0.01,-0.37,86.24,-16.05,23.86
-2,15,-56,-1.61,-0.05,-0.39,90.45,-12.94,23.86
-2,15,-56,-1.56,-0.11,-0.32,93.51,-18.68,22.89
-2,15,-56,-1.45,-0.16,-0.2,91.74,-31.86,21
-2,15,-56,-1.38,-0.22,-0.08,86.49,-45.17,19.65
-2,15,-56,-1.38,-0.22,-0.08,86.49,-45.17,19.65
-2,15,-56,-1.34,-0.25,0.02,83.8,-53.77,19.84
-2,15,-56,-1.3,-0.27,0.12,85.69,-53.96,22.52
-2,15,-56,-1.18,-0.29,0.2,89.97,-42.91,25.63
-2,15,-56,-1.01,-0.39,0.25,93.2,-24.84,28.5
-2,15,-56,-1.01,-0.39,0.25,85.45,-11.96,29.24
-2,15,-56,-1.01,-0.28,0.19,85.45,-11.96,29.24
-2,15,-56,-0.99,-0.21,0.12,76.23,-5.37,29.48
-2,15,-56,-0.95,-0.2,0.05,74.4,11.11,29.24
-2,15,-56,-0.92,-0.18,-0.06,72.51,29.97,28.99
-2,15,-56,-0.92,-0.18,-0.06,72.63,39.73,27.95
-2,15,-56,-0.9,-0.14,-0.16,72.63,39.73,27.95
-2,15,-56,-0.89,-0.11,-0.25,74.95,40.1,26.49
-2,15,-56,-0.86,-0.14,-0.29,77.64,33.75,23.86
-2,15,-56,-0.86,-0.16,-0.35,81.18,22.22,22.03
-2,15,-56,-0.86,-0.2,-0.35,86,9.22,20.87
-1,15,-56,-0.86,-0.2,-0.35,86,9.22,20.87
-1,15,-56,-0.89,-0.21,-0.34,89.84,-1.95,20.2
-1,15,-56,-0.94,-0.2,-0.28,97.9,-7.32,20.87
0,15,-56,-0.99,-0.25,-0.19,108.89,-8.3,22.46
0,15,-56,-1.02,-0.31,-0.09,110.29,-9.22,22.46
0,15,-56,-1.02,-0.31,-0.09,101.56,-9.52,21.85
0,15,-56,-1.06,-0.32,-0.03,101.56,-9.52,21.85
0,15,-56,-1.07,-0.29,-0.01,92.29,-8.85,21.18
1,15,-56,-1.08,-0.26,0,85.75,-6.47,20.26
1,15,-56,-1.08,-0.25,-0.02,83.5,-0.43,19.41
2,15,-56,-1.08,-0.25,-0.02,85.27,7.45,18.8
2,15,-56,-1.07,-0.27,-0.02,85.27,7.45,18.8
3,15,-56,-1.06,-0.29,-0.03,85.51,14.95,18.49
3,14,-55,-1.02,-0.32,-0.03,81.91,21.55,17.33
4,14,-55,-0.99,-0.34,-0.06,75.13,26.37,15.38
4,13,-54,-0.99,-0.34,-0.06,67.93,29.66,13.24
4,12,-53,-0.96,-0.35,-0.1,67.93,29.66,13.24
5,12,-53,-0.93,-0.37,-0.15,62.5,33.14,11.72
5,12,-53,-0.89,-0.35,-0.2,58.23,35.89,10.62
5,12,-52,-0.85,-0.33,-0.25,55.48,36.93,9.34
5,12,-52,-0.85,-0.33,-0.25,55.48,36.93,9.34
5,12,-52,-0.82,-0.31,-0.28,55.05,36.56,8.54
5,12,-52,-0.8,-0.3,-0.27,56.34,34.79,7.75
6,12,-52,-0.8,-0.31,-0.26,56.7,33.08,6.65
7,12,-52,-0.79,-0.33,-0.25,53.1,31.01,4.7
9,12,-52,-0.79,-0.33,-0.25,53.1,31.01,4.7
11,12,-51,-0.79,-0.32,-0.25,48.65,27.1,2.69
13,12,-51,-0.8,-0.31,-0.25,44.07,23.86,0.55
15,13,-50,-0.81,-0.29,-0.24,39.12,22.28,-1.65
15,13,-45,-0.83,-0.28,-0.22,36.44,20.63,-3.72
15,13,-33,-0.83,-0.28,-0.22,36.44,20.63,-3.72
15,13,-28,-0.85,-0.3,-0.18,34.12,18.43,-6.16
15,13,-27,-0.86,-0.32,-0.16,29.48,15.56,-8.91
16,13,-27,-0.86,-0.34,-0.13,23.86,11.66,-11.78
16,13,-27,-0.86,-0.36,-0.12,18.25,7.14,-14.28
16,13,-27,-0.86,-0.36,-0.12,13,4.58,-16.48
16,13,-26,-0.86,-0.36,-0.11,13,4.58,-16.48
16,13,-26,-0.85,-0.36,-0.11,10.8,2.5,-17.64
17,13,-26,-0.84,-0.36,-0.12,10.38,0.73,-17.88
17,13,-26,-0.83,-0.36,-0.12,10.93,-1.89,-17.4
17,13,-26,-0.82,-0.34,-0.11,12.08,-4.09,-16.42
17,12,-26,-0.82,-0.34,-0.11,12.08,-4.09,-16.42
17,12,-25,-0.82,-0.33,-0.1,12.94,-4.82,-15.56
18,11,-21,-0.8,-0.31,-0.09,15.2,-3.05,-14.1
18,10,-13,-0.8,-0.28,-0.09,18.49,0.55,-12.76
18,9,-8,-0.82,-0.23,-0.11,21.06,2.5,-12.08
18,9,-6,-0.82,-0.23,-0.11,23.38,1.65,-11.54
18,8,-6,-0.87,-0.19,-0.11,23.38,1.65,-11.54
18,8,-6,-0.9,-0.18,-0.1,25.27,0.98,-11.66
18,8,-6,-0.95,-0.16,-0.12,23.86,-0.37,-11.11
18,8,-5,-0.95,-0.14,-0.13,23.13,-3.66,-11.54
18,8,-5,-1,-0.11,-0.19,18.31,-11.41,-13.61
18,8,-5,-1,-0.11,-0.19,18.31,-11.41,-13.61
18,8,-5,-1.11,-0.07,-0.26,15.93,-19.65,-15.2
18,8,-5,-1.21,-0.05,-0.32,22.46,-19.78,-15.56
18,8,-5,-1.3,-0.04,-0.37,32.53,-12.51,-14.65
18,8,-5,-1.27,-0.08,-0.38,39.79,-5.98,-13.92
18,8,-5,-1.27,-0.08,-0.38,40.1,-8.54,-13.06
18,8,-5,-1.36,0.04,-0.35,40.1,-8.54,-13.06
18,8,-5,-1.28,0.06,-0.23,38.27,-22.52,-15.81
17,8,-5,-1.22,0.1,-0.14,33.69,-43.4,-17.4
17,8,-5,-1.14,0.1,-0.05,33.69,-61.4,-18.01
17,8,-5,-1.08,0.06,0,38.02,-68.3,-16.91
17,8,-5,-1.08,0.06,0,38.02,-68.3,-16.91
17,8,-5,-1.01,0.04,0.02,41.2,-65.43,-15.63
16,8,-5,-0.94,0.02,0.02,40.65,-58.53,-14.53
16,8,-5,-0.9,0.03,-0.01,39.25,-49.5,-13.06
16,8,-5,-0.89,0.01,-0.05,39.92,-35.4,-9.89
15,8,-5,-0.89,0.01,-0.05,39.92,-35.4,-9.89
14,8,-5,-0.9,0.03,-0.08,42.05,-19.23,-5.55
13,8,-5,-0.89,0.02,-0.12,41.32,-3.91,-1.83
12,8,-5,-0.92,0,-0.19,42.36,5.92,3.6
11,8,-5,-0.98,0.02,-0.28,48.22,12.08,10.56
10,8,-5,-0.98,0.02,-0.28,48.22,12.08,10.56
7,8,-5,-1.02,0.05,-0.38,56.34,13.92,16.05
5,8,-5,-1.03,0.03,-0.45,65.06,5.92,19.17
4,8,-5,-1.05,0.07,-0.47,70.68,-9.58,20.75
4,8,-5,-1.05,0.07,-0.47,77.39,-28.2,22.22
3,8,-5,-1.09,0.14,-0.4,77.39,-28.2,22.22
3,8,-5,-1.13,0.21,-0.25,88.93,-48.65,23.99
3,8,-5,-1.25,0.25,-0.13,99.24,-65.31,24.11
3,8,-5,-1.28,0.18,-0.01,103.27,-76.6,21.12
3,8,-5,-1.28,0.18,-0.01,97.84,-87.52,17.4
3,8,-5,-1.29,0.1,0,97.84,-87.52,17.4
3,8,-5,-1.32,0.05,-0.01,89.78,-95.28,15.38
3,8,-5,-1.33,0.01,-0.01,82.76,-92.41,15.08
3,8,-5,-1.28,-0.11,0.03,80.81,-77.15,16.11
3,8,-5,-1.28,-0.11,0.03,80.81,-77.15,16.11
3,8,-5,-1.31,0,0.07,70.92,-59.45,16.85
3,8,-5,-1.3,0.03,0.12,65.43,-36.38,18.31
3,8,-5,-1.22,-0.05,0.12,67.63,-6.9,20.32
3,8,-5,-1.15,-0.08,0.08,67.57,16.78,21.36
3,7,-5,-1.15,-0.08,0.08,67.57,16.78,21.36
3,7,-5,-1.1,-0.01,0.01,58.41,26.86,20.2
3,7,-5,-1.05,0.05,-0.08,50.96,30.58,18.19
3,7,-5,-0.99,0.07,-0.18,47.73,35.1,17.03
3,7,-5,-0.99,0.07,-0.18,49.38,39.06,17.46
3,7,-5,-0.92,0.12,-0.27,49.38,39.06,17.46
3,7,-5,-0.88,0.14,-0.34,55.3,41.44,19.17
2,7,-5,-0.84,0.15,-0.39,62.13,43.27,21.18
2,7,-5,-0.81,0.14,-0.43,67.44,43.88,22.71
2,7,-6,-0.81,0.14,-0.43,67.44,43.88,22.71
2,7,-6,-0.79,0.13,-0.46,72.57,41.81,24.11
2,7,-6,-0.84,0.16,-0.5,79.04,38.64,25.82
2,7,-7,-0.83,0.12,-0.51,88.5,38.39,27.1
2,7,-8,-0.83,0.12,-0.51,94.24,36.87,27.16
2,7,-9,-0.83,0.08,-0.52,94.24,36.87,27.16
1,7,-10,-0.83,0.07,-0.52,95.95,29.3,26.73
1,7,-11,-0.87,0.06,-0.52,95.03,18.92,25.94
1,8,-12,-0.91,0.06,-0.51,94.67,10.13,25.45
1,9,-13,-0.91,0.06,-0.51,94.67,10.13,25.45
1,11,-13,-0.95,0.03,-0.49,94.6,4.27,24.66
1,12,-14,-0.98,0.01,-0.47,94.06,0.85,23.86
1,12,-15,-1.01,0,-0.43,94.91,-2.32,23.5
1,12,-15,-1.05,-0.02,-0.39,97.29,-5.13,23.68
1,13,-15,-1.05,-0.02,-0.39,97.29,-5.13,23.68
1,13,-15,-1.08,-0.04,-0.35,98.69,-6.23,23.74
1,13,-15,-1.1,-0.07,-0.32,98.45,-5,23.62
1,13,-15,-1.11,-0.09,-0.3,98.14,-2.87,23.86
1,13,-15,-1.12,-0.12,-0.29,97.84,0.79,24.48
1,13,-15,-1.12,-0.12,-0.29,97.84,0.79,24.48
1,13,-15,-1.11,-0.14,-0.29,98.63,5.31,25.39
1,13,-15,-1.1,-0.18,-0.29,100.52,9.46,26.86
1,13,-15,-1.07,-0.21,-0.32,100.22,13.37,27.95
1,13,-15,-1.05,-0.23,-0.35,98.63,16.97,28.75
1,13,-14,-1.05,-0.23,-0.35,98.63,16.97,28.75
2,13,-14,-1.03,-0.24,-0.37,97.11,19.47,29.42
2,14,-14,-1.01,-0.25,-0.39,95.83,21.67,29.72
2,14,-13,-1,-0.26,-0.39,93.38,23.38,29.36
2,14,-13,-1,-0.26,-0.39,89.36,23.8,28.32
2,14,-11,-0.99,-0.24,-0.37,89.36,23.8,28.32
2,14,-7,-0.98,-0.22,-0.35,83.86,22.77,26.73
3,14,5,-0.97,-0.19,-0.35,77.33,20.51,25.02
3,15,9,-0.96,-0.14,-0.33,71.84,17.52,22.77
3,15,10,-0.96,-0.14,-0.33,66.59,14.47,19.96
4,15,11,-0.95,-0.12,-0.31,66.59,14.47,19.96
4,15,11,-0.95,-0.1,-0.27,62.44,11.54,17.27
4,15,12,-0.93,-0.08,-0.24,59.2,9.95,15.08
4,15,12,-0.92,-0.04,-0.2,57.74,10.01,13.55
4,15,12,-0.92,-0.04,-0.2,57.74,10.01,13.55
4,15,13,-0.92,-0.02,-0.17,58.11,11.66,12.39
4,15,13,-0.91,-0.02,-0.15,57.43,14.53,10.93
4,15,13,-0.9,-0.01,-0.14,54.69,17.7,9.28
4,15,14,-0.9,-0.01,-0.14,50.6,20.94,7.63
3,15,14,-0.9,-0.01,-0.15,50.6,20.94,7.63
3,15,14,-0.89,0,-0.16,46.51,23.44,6.04
3,15,14,-0.88,0.01,-0.18,43.21,24.66,4.82
3,15,14,-0.88,0.02,-0.21,41.02,24.9,4.33
3,15,14,-0.88,0.02,-0.21,41.02,24.9,4.33
3,15,14,-0.88,0.03,-0.25,40.47,24.48,4.33
2,15,14,-0.89,0.03,-0.28,41.93,23.93,4.52
2,15,14,-0.89,0.02,-0.32,45.23,23.62,5
1,15,14,-0.89,0.02,-0.32,49.07,23.32,5.49
1,15,14,-0.89,-0.01,-0.33,49.07,23.32,5.49
1,15,14,-0.9,-0.02,-0.34,52,22.22,6.29
1,15,14,-0.91,-0.04,-0.34,53.89,20.39,6.77
1,15,14,-0.93,-0.05,-0.33,54.99,18.49,7.14
1,15,14,-0.93,-0.05,-0.33,54.99,18.49,7.14
1,15,14,-0.95,-0.05,-0.32,54.99,16.17,7.69
1,15,14,-0.97,-0.06,-0.3,54.32,14.04,8
1,15,14,-0.98,-0.06,-0.27,52.55,12.63,8.24
1,15,14,-0.98,-0.06,-0.27,50.6,11.6,8.24
1,15,14,-0.99,-0.07,-0.26,50.6,11.6,8.24
2,15,14,-1,-0.07,-0.25,49.19,10.74,8.67
2,15,15,-1.01,-0.08,-0.25,48.22,10.07,9.64
2,15,16,-1.01,-0.08,-0.26,47.91,9.95,10.99
2,15,17,-1.01,-0.08,-0.26,47.91,9.95,10.99
3,15,19,-1.01,-0.08,-0.27,49.32,10.07,13.06
3,15,21,-1,-0.07,-0.27,52.31,10.56,15.75
3,15,25,-0.98,-0.07,-0.28,55.48,11.96,18.37
4,15,30,-0.98,-0.07,-0.28,57.86,12.63,20.39
4,15,36,-0.97,-0.08,-0.29,57.86,12.63,20.39
4,16,42,-0.97,-0.09,-0.31,57.74,12.27,21.79
4,16,46,-0.98,-0.11,-0.32,56.21,11.11,23.01
4,16,48,-1.03,-0.13,-0.35,55.18,8.97,23.99
4,16,49,-1.03,-0.13,-0.35,55.18,8.97,23.99
4,16,49,-1.1,-0.15,-0.41,54.08,7.2,25.21
4,16,49,-1.17,-0.16,-0.45,53.89,5.8,26
4,16,50,-1.2,-0.18,-0.45,54.5,3.66,26.37
4,16,50,-1.23,-0.18,-0.45,53.41,-1.59,27.53
4,16,50,-1.23,-0.18,-0.45,53.41,-1.59,27.53
4,16,51,-1.25,-0.19,-0.37,49.19,-9.22,28.38
5,16,51,-1.27,-0.17,-0.33,42.91,-19.04,26.49
5,16,51,-1.31,-0.17,-0.28,41.69,-26.37,26.43
5,16,51,-1.31,-0.18,-0.22,41.08,-28.87,26.79
6,16,51,-1.31,-0.18,-0.22,41.08,-28.87,26.79
6,16,51,-1.11,-0.36,-0.08,42.05,-29.05,26.79
6,16,51,-1.14,-0.2,-0.05,33.39,-35.89,25.39
6,16,51,-1.08,-0.16,0.02,26.86,-44.92,25.45
6,16,51,-1.08,-0.16,0.02,28.14,-47.55,25.63
6,16,51,-0.99,-0.13,0.05,28.14,-47.55,25.63
6,16,51,-0.92,-0.06,0.08,39.12,-42.3,27.89
6,16,51,-0.88,-0.05,0.12,57.68,-32.9,31.25
6,16,51,-0.83,-0.16,0.17,71.53,-23.68,33.26
6,16,51,-0.83,-0.16,0.17,71.53,-23.68,33.26
6,16,51,-0.84,-0.18,0.18,71.04,-15.32,32.41
6,16,51,-0.87,-0.15,0.19,60.24,-8.3,29.24
6,16,51,-0.91,-0.16,0.17,48.03,-0.73,24.48
6,16,51,-0.91,-0.16,0.17,34.85,7.45,19.17
6,15,51,-0.95,-0.15,0.1,34.85,7.45,19.17
6,15,51,-0.98,-0.13,-0.02,21.85,12.02,14.22
7,15,51,-1,-0.11,-0.15,14.71,12.15,10.68
6,15,51,-1.03,-0.09,-0.27,15.32,9.16,8.79
6,15,51,-1.03,-0.09,-0.27,15.32,9.16,8.79
6,15,51,-1.05,-0.07,-0.34,21.97,3.3,8
6,15,51,-1.05,-0.07,-0.36,31.92,-4.58,8.06
6,15,51,-1.07,-0.1,-0.32,41.63,-13.79,8.85
6,15,51,-1.08,-0.11,-0.26,49.38,-22.52,9.58
6,15,51,-1.08,-0.11,-0.26,49.38,-22.52,9.58
6,15,51,-1.12,-0.15,-0.19,54.57,-28.2,10.56
6,15,51,-1.13,-0.19,-0.11,57.43,-30.76,12.27
6,15,51,-1.13,-0.21,-0.07,58.29,-26.92,13.98
7,15,51,-1.14,-0.27,-0.04,59.14,-19.47,16.24
7,15,51,-1.14,-0.27,-0.04,59.14,-19.47,16.24
7,15,51,-1.12,-0.28,-0.02,59.57,-10.56,18.74
7,15,51,-1.08,-0.3,-0.01,58.72,-2.32,20.2
7,15,51,-1.03,-0.31,-0.04,54.81,5,20.39
7,15,51,-1.03,-0.31,-0.04,49.38,11.23,19.9
7,15,51,-0.99,-0.3,-0.09,49.38,11.23,19.9
7,14,51,-0.95,-0.28,-0.13,45.23,16.05,19.17
7,14,51,-0.92,-0.26,-0.16,44.62,19.23,19.1
7,14,51,-0.9,-0.24,-0.19,46.08,21.73,19.1
8,14,50,-0.9,-0.24,-0.19,46.08,21.73,19.1
8,14,50,-0.88,-0.25,-0.22,45.84,23.13,18.74
9,14,50,-0.86,-0.26,-0.24,43.7,22.77,17.88
11,14,50,-0.86,-0.25,-0.26,39.92,20.75,16.54
12,14,50,-0.86,-0.25,-0.26,36.25,17.33,14.65
13,14,50,-0.85,-0.24,-0.28,36.25,17.33,14.65
14,14,50,-0.86,-0.23,-0.29,34.79,13.43,13.12
14,14,50,-0.87,-0.24,-0.28,35.64,9.77,11.41
14,14,50,-0.88,-0.23,-0.27,36.93,5.98,9.83
14,14,50,-0.88,-0.23,-0.27,37.9,2.44,7.81
14,14,50,-0.9,-0.23,-0.25,37.9,2.44,7.81
14,14,50,-0.92,-0.24,-0.22,38.09,0,5.86
14,14,50,-0.94,-0.24,-0.19,36.87,-1.53,3.23
14,14,50,-0.96,-0.25,-0.17,33.57,-2.5,0.37
14,14,50,-0.96,-0.25,-0.17,33.57,-2.5,0.37
14,14,50,-0.98,-0.26,-0.16,29.24,-3.05,-2.2
14,14,50,-1.01,-0.28,-0.15,25.21,-2.56,-3.85
15,14,49,-1.02,-0.29,-0.15,22.4,-0.24,-4.94
15,14,49,-1.03,-0.29,-0.15,21.55,3.66,-5.13
15,14,49,-1.03,-0.29,-0.15,21.55,3.66,-5.13
15,14,49,-1.03,-0.29,-0.15,22.77,8.54,-4.52
15,14,49,-1.03,-0.29,-0.14,24.9,13.43,-4.15
15,13,49,-1.01,-0.27,-0.14,26,17.21,-4.03
15,12,48,-1,-0.26,-0.13,27.47,19.84,-3.85
15,12,48,-1,-0.26,-0.13,27.47,19.84,-3.85
15,11,46,-0.98,-0.26,-0.13,29.54,21.85,-3.78
15,10,42,-0.96,-0.26,-0.14,31.13,24.17,-3.85
15,9,37,-0.93,-0.26,-0.15,31.25,26.12,-4.15
15,9,35,-0.93,-0.28,-0.15,30.21,26.55,-4.52
15,9,34,-0.93,-0.28,-0.15,30.21,26.55,-4.52
15,9,34,-0.9,-0.26,-0.15,28.26,27.34,-5.13
15,9,34,-0.88,-0.2,-0.14,26.73,30.46,-6.04
15,9,34,-0.87,-0.2,-0.14,30.09,32.35,-6.84
15,9,34,-0.87,-0.24,-0.13,37.41,30.46,-6.77
15,9,34,-0.87,-0.24,-0.13,37.41,30.46,-6.77
15,9,34,-0.87,-0.27,-0.12,41.99,26.73,-6.41
15,9,34,-0.87,-0.31,-0.12,41.2,22.34,-6.96
15,9,33,-0.9,-0.34,-0.14,35.34,18.31,-8.3
15,9,33,-0.91,-0.29,-0.17,23.99,15.2,-9.7
15,9,33,-0.91,-0.29,-0.17,23.99,15.2,-9.7
15,9,33,-0.9,-0.21,-0.19,11.66,11.96,-11.72
15,9,33,-0.89,-0.15,-0.19,5.62,7.02,-13.49
15,9,33,-0.9,-0.15,-0.17,5.25,0.18,-14.34
15,9,33,-0.93,-0.14,-0.15,7.45,-5.8,-14.22
15,9,33,-0.93,-0.14,-0.15,7.45,-5.8,-14.22
15,9,33,-0.97,-0.13,-0.14,11.78,-10.25,-13.79
15,9,34,-0.99,-0.13,-0.14,15.14,-13.92,-13.73
15,9,34,-1.07,-0.15,-0.19,15.14,-14.77,-14.22
15,9,34,-1.14,-0.1,-0.23,14.47,-12.7,-13.85
15,9,34,-1.14,-0.1,-0.23,17.21,-6.96,-11.96
15,9,34,-1.14,-0.09,-0.22,17.21,-6.96,-11.96
15,9,34,-1.13,-0.06,-0.23,16.54,-6.04,-10.99
15,9,34,-1.14,-0.02,-0.22,14.89,-13.24,-9.95
15,9,34,-1.18,0.02,-0.23,18.37,-21.06,-8.24
14,9,34,-1.18,0.02,-0.23,23.56,-24.23,-7.08
14,9,34,-1.18,0.02,-0.23,23.56,-24.23,-7.08
14,10,34,-1.15,0.01,-0.22,29.85,-25.63,-6.23
14,10,34,-1.11,-0.01,-0.21,35.34,-29.48,-5.19
14,10,34,-1.07,-0.04,-0.19,38.76,-33.75,-4.33
14,10,34,-1.07,-0.04,-0.19,41.08,-35.52,-3.48
13,10,34,-1.05,-0.06,-0.16,41.08,-35.52,-3.48
13,10,34,-1.03,-0.09,-0.13,42.66,-34.91,-2.38
13,10,34,-1.01,-0.1,-0.11,42.05,-33.63,-1.4
12,10,34,-1.01,-0.11,-0.1,38.15,-31.86,-0.55
12,10,34,-1.01,-0.11,-0.1,31.74,-30.4,-0.37
12,10,34,-1.02,-0.1,-0.11,31.74,-30.4,-0.37
12,10,34,-1.01,-0.1,-0.14,23.93,-30.58,-0.92
12,10,34,-1.02,-0.09,-0.17,17.03,-31.98,-1.77
12,10,34,-1.01,-0.09,-0.18,12.21,-32.41,-2.08
11,10,34,-0.99,-0.09,-0.16,9.64,-31.37,-2.14
10,10,34,-0.99,-0.09,-0.16,9.64,-31.37,-2.14
9,10,34,-0.97,-0.07,-0.12,9.4,-30.7,-1.77
8,10,34,-0.98,-0.05,-0.08,9.46,-31.01,-1.65
8,10,34,-0.99,-0.04,-0.07,8.36,-29.97,-2.01
8,10,34,-1,-0.04,-0.05,7.26,-27.34,-2.26
8,10,35,-1,-0.04,-0.05,7.26,-27.34,-2.26
7,10,35,-1.02,-0.01,-0.08,5.74,-23.93,-2.56
7,10,35,-1.05,0.04,-0.1,5.49,-20.02,-2.62
7,10,35,-1.08,0.07,-0.11,6.29,-14.4,-2.81
7,9,35,-1.09,0.11,-0.09,5.55,-7.93,-2.93
7,9,35,-1.09,0.11,-0.09,5.55,-7.93,-2.93
7,9,35,-1.11,0.15,-0.06,2.01,-2.62,-4.09
7,9,35,-1.13,0.17,-0.04,-3.78,1.04,-6.29
7,8,35,-1.15,0.2,-0.06,-11.11,2.93,-9.34
7,8,35,-1.14,0.21,-0.08,-18.13,3.17,-13
7,7,35,-1.14,0.21,-0.08,-18.13,3.17,-13
7,7,35,-1.15,0.21,-0.12,-23.68,3.3,-15.93
7,7,35,-1.12,0.19,-0.16,-25.33,3.36,-17.94
6,7,35,-1.11,0.18,-0.21,-23.62,2.38,-18.8
6,7,34,-1.15,0.2,-0.29,-20.14,1.46,-18.19
5,7,34,-1.15,0.2,-0.29,-20.14,1.46,-18.19
4,7,34,-1.07,0.16,-0.28,-14.28,5.55,-16.78
2,7,34,-1.05,0.15,-0.29,-6.47,4.64,-14.89
1,7,34,-1.03,0.12,-0.28,-0.61,-0.92,-13
1,7,34,-1.03,0.13,-0.27,2.99,-4.52,-12.08
1,7,34,-1.03,0.13,-0.27,2.99,-4.52,-12.08
1,7,34,-1,0.08,-0.24,6.9,-3.42,-12.15
0,8,33,-0.99,0.08,-0.23,9.28,-1.1,-12.02
0,8,33,-0.97,0.05,-0.19,9.77,1.89,-11.54
0,8,32,-0.97,0.05,-0.16,9.4,5.86,-11.23
0,8,32,-0.97,0.05,-0.16,9.4,5.86,-11.23
0,8,30,-0.97,0.05,-0.13,9.28,10.93,-11.17
0,8,29,-0.98,0.05,-0.11,9.28,17.03,-11.35
0,8,27,-0.98,0.05,-0.1,6.71,22.22,-12.15
0,8,25,-0.98,0.05,-0.1,1.77,26.18,-13.24
0,8,24,-1,0.1,-0.12,1.77,26.18,-13.24
-1,8,23,-0.97,0.08,-0.13,-1.53,31.13,-14.47
-1,8,23,-0.95,0.08,-0.15,-3.72,34.48,-15.44
-2,8,22,-0.94,0.08,-0.18,-5.37,34.18,-15.63
-2,8,22,-0.94,0.08,-0.18,-6.04,31.68,-15.38
-2,8,20,-0.95,0.09,-0.21,-6.04,31.68,-15.38
-2,8,19,-0.95,0.1,-0.24,-4.88,29.3,-14.89
-3,8,18,-0.95,0.12,-0.26,-2.26,28.2,-13.79
-3,8,16,-0.95,0.13,-0.26,1.4,26.31,-12.33
-3,8,15,-0.95,0.13,-0.26,3.91,22.09,-10.99
-3,8,13,-0.95,0.14,-0.26,3.91,22.09,-10.99
-3,8,10,-0.96,0.14,-0.26,4.7,17.52,-10.13
-3,9,7,-0.97,0.15,-0.25,4.64,13.06,-9.52
-3,9,5,-0.97,0.15,-0.24,4.33,8.97,-8.91
-4,9,3,-0.97,0.15,-0.24,4.58,5.37,-7.75
-4,9,2,-0.97,0.14,-0.23,4.58,5.37,-7.75
-4,10,1,-0.97,0.14,-0.22,5.31,3.17,-6.47
-5,10,-1,-0.97,0.14,-0.22,6.84,1.77,-5.07
-6,10,-3,-0.97,0.14,-0.21,9.03,1.28,-3.48
-6,10,-5,-0.98,0.12,-0.2,11.54,1.1,-2.08
-7,10,-8,-0.98,0.12,-0.2,11.54,1.1,-2.08
-7,11,-13,-0.99,0.11,-0.2,13.61,1.22,-0.31
-7,11,-19,-0.99,0.11,-0.19,15.56,1.65,1.71
-7,11,-23,-1,0.1,-0.19,16.24,2.62,2.99
-6,11,-24,-1.01,0.09,-0.19,16.36,3.42,3.66
-6,11,-25,-1.01,0.09,-0.19,16.36,3.42,3.66
-6,11,-26,-1.01,0.09,-0.18,16.48,3.48,4.33
-6,11,-27,-1.01,0.09,-0.18,16.72,3.17,5
-6,10,-27,-1.01,0.08,-0.18,16.11,3.3,5.49
-6,10,-28,-1.01,0.08,-0.18,16.24,3.6,6.16
-6,10,-29,-1.01,0.08,-0.18,16.24,3.6,6.16
-6,10,-30,-0.99,0.08,-0.18,16.97,3.78,6.84
-6,10,-32,-0.98,0.07,-0.17,17.82,3.72,7.87
-6,10,-34,-0.96,0.06,-0.17,18.62,3.3,8.85
-5,10,-36,-0.95,0.06,-0.16,17.64,2.14,9.46
-5,10,-37,-0.95,0.06,-0.16,17.64,2.14,9.46
-5,10,-38,-0.93,0.07,-0.17,15.5,0.98,9.95
-5,10,-40,-0.92,0.08,-0.17,14.1,0.06,10.99
-5,10,-41,-0.91,0.09,-0.18,13.31,-1.22,12.33
-5,10,-42,-0.91,0.11,-0.18,12.76,-2.93,14.1
-5,10,-42,-0.91,0.11,-0.18,12.76,-2.93,14.1
-5,10,-42,-0.9,0.12,-0.19,12.76,-4.58,15.93
-5,10,-43,-0.89,0.13,-0.19,13.12,-6.41,18.43
-5,10,-43,-0.89,0.13,-0.19,14.22,-8.48,21
-5,10,-43,-0.89,0.13,-0.2,15.32,-10.62,23.62
-5,10,-43,-0.89,0.13,-0.2,15.32,-10.62,23.62
-5,10,-43,-0.89,0.12,-0.21,16.17,-13,26.37
-5,11,-43,-0.91,0.11,-0.24,17.88,-15.5,29.11
-5,11,-43,-0.95,0.1,-0.26,20.75,-17.15,32.29
-5,11,-44,-1,0.09,-0.29,24.72,-17.09,35.28
-5,11,-44,-1,0.09,-0.29,29.36,-15.75,37.9
-5,11,-44,-1.06,0.06,-0.3,29.36,-15.75,37.9
-5,11,-44,-1.11,0.03,-0.31,34.06,-14.71,40.04
-5,11,-44,-1.15,0,-0.3,36.93,-14.47,40.83
-5,11,-44,-1.16,-0.04,-0.29,38.21,-15.81,40.77
-5,11,-44,-1.16,-0.04,-0.29,38.27,-18.62,40.53
-5,11,-44,-1.17,-0.08,-0.28,38.27,-18.62,40.53
-5,11,-44,-1.17,-0.1,-0.27,37.9,-21.48,40.28
-5,11,-44,-1.17,-0.11,-0.25,37.23,-22.83,40.04
-5,11,-44,-1.17,-0.12,-0.23,35.83,-23.13,40.28
-5,11,-44,-1.19,-0.11,-0.21,33.2,-21.24,40.04
-5,11,-44,-1.19,-0.11,-0.21,33.2,-21.24,40.04
-5,11,-44,-1.18,-0.1,-0.16,30.03,-16.78,39.79
-5,11,-44,-1.15,-0.09,-0.12,27.77,-10.74,39.12
-4,11,-43,-1.11,-0.09,-0.11,23.8,-5.8,38.21
-4,11,-43,-1.09,-0.06,-0.11,19.71,-1.4,37.48
-3,11,-43,-1.06,-0.03,-0.11,18.25,3.17,36.87
-3,11,-42,-1.06,-0.03,-0.11,18.25,3.17,36.87
-3,11,-42,-1.01,-0.02,-0.1,17.58,7.57,35.52
-3,11,-42,-1,-0.01,-0.12,16.05,11.6,33.75
-3,11,-42,-1,0,-0.15,16.11,14.22,32.1
-3,11,-42,-1.01,0.01,-0.16,19.41,15.01,31.25
-3,11,-42,-1.01,0.01,-0.16,19.41,15.01,31.25
-2,11,-42,-1.01,0.01,-0.2,21.67,18.49,30.46
-2,11,-42,-0.97,0.01,-0.21,21.67,22.22,29.17
-2,11,-42,-0.97,0.03,-0.23,24.17,21.3,28.26
-2,11,-42,-1.02,0,-0.22,29.97,17.21,28.08
-2,11,-42,-1.02,0,-0.22,29.97,17.21,28.08
-1,11,-42,-1.05,-0.01,-0.22,33.2,15.01,27.77
-1,11,-42,-1.06,-0.03,-0.21,30.76,14.4,26.67
-1,11,-42,-1.06,-0.02,-0.21,25.76,11.72,25.15
-1,11,-42,-1.07,-0.01,-0.19,22.16,7.39,24.23
-1,11,-42,-1.07,-0.01,-0.19,22.16,7.39,24.23
0,11,-42,-1.07,0,-0.16,23.68,3.6,24.35
0,11,-42,-1.07,-0.01,-0.11,28.56,2.01,25.51
0,11,-42,-1.07,-0.03,-0.06,33.94,2.56,26.98
0,10,-42,-1.05,-0.05,-0.03,36.25,4.27,27.53
0,10,-42,-1.05,-0.05,-0.03,36.25,4.27,27.53
0,10,-42,-1.04,-0.07,-0.01,35.46,5.62,27.71
0,10,-42,-1.02,-0.07,0,34.42,8.06,27.89
0,10,-42,-0.98,-0.07,0,33.75,11.29,28.02
0,10,-42,-0.98,-0.07,0,33.75,14.34,27.83
0,10,-42,-0.97,-0.1,-0.02,33.75,14.34,27.83
1,10,-42,-0.93,-0.1,-0.04,31.19,16.6,26.98
1,10,-42,-0.9,-0.13,-0.06,30.4,18.01,26.37
1,10,-41,-0.91,-0.14,-0.08,31.31,18.86,25.94
1,9,-41,-0.91,-0.14,-0.08,30.09,20.57,24.96
1,9,-41,-0.9,-0.16,-0.12,30.09,20.57,24.96
1,9,-41,-0.9,-0.17,-0.15,29.24,22.71,23.93
1,9,-41,-0.91,-0.2,-0.16,30.03,23.8,23.13
1,9,-41,-0.93,-0.21,-0.18,29.48,24.29,21.97
1,9,-41,-0.93,-0.21,-0.18,28.2,23.62,20.51
1,9,-41,-0.95,-0.23,-0.19,28.2,23.62,20.51
1,9,-40,-0.98,-0.24,-0.19,27.28,22.09,19.04
2,9,-40,-1.01,-0.26,-0.2,25.88,20.39,17.46
2,9,-38,-1.03,-0.26,-0.19,24.66,18.98,16.11
2,9,-35,-1.03,-0.26,-0.19,24.35,17.76,15.08
2,9,-29,-1.06,-0.27,-0.18,24.35,17.76,15.08
3,9,-26,-1.08,-0.29,-0.17,24.9,18.07,14.04
4,9,-24,-1.08,-0.31,-0.16,25.63,18.68,13.24
4,9,-24,-1.07,-0.33,-0.14,25.63,19.17,12.45
5,9,-24,-1.07,-0.33,-0.14,23.99,18.98,11.29
5,9,-23,-1.08,-0.34,-0.12,23.99,18.98,11.29
6,9,-23,-1.07,-0.35,-0.1,21.79,19.04,10.19
6,9,-23,-1.06,-0.35,-0.1,19.23,20.51,9.03
6,9,-23,-1.03,-0.35,-0.08,16.48,21.61,8.36
7,9,-23,-1.03,-0.35,-0.08,14.47,21.97,7.69
7,9,-23,-1.01,-0.35,-0.08,14.47,21.97,7.69
8,9,-22,-0.99,-0.34,-0.08,12.82,21.85,7.51
8,8,-22,-0.96,-0.35,-0.08,11.47,21.91,7.2
9,8,-22,-0.92,-0.36,-0.08,10.25,21.3,7.2
9,8,-21,-0.92,-0.36,-0.08,10.25,21.3,7.2
10,7,-19,-0.89,-0.36,-0.09,9.34,20.75,7.57
10,7,-16,-0.86,-0.35,-0.11,8.24,19.9,7.93
10,7,-14,-0.84,-0.33,-0.13,7.51,18.25,8.73
11,7,-13,-0.82,-0.32,-0.14,7.63,16.97,9.89
11,7,-13,-0.82,-0.32,-0.14,7.63,16.97,9.89
12,7,-12,-0.81,-0.31,-0.16,9.34,15.56,10.93
13,7,-12,-0.81,-0.3,-0.16,12.7,13.61,12.08
14,7,-12,-0.82,-0.3,-0.17,15.93,11.66,12.94
14,7,-12,-0.83,-0.29,-0.18,17.21,9.4,12.94
15,8,-12,-0.83,-0.29,-0.18,17.21,9.4,12.94
15,8,-11,-0.85,-0.28,-0.17,19.29,5.98,12.7
15,8,-11,-0.87,-0.28,-0.16,21.42,2.56,12.51
15,8,-10,-0.89,-0.27,-0.15,23.44,-0.73,12.02
15,8,-9,-0.9,-0.25,-0.12,25.88,-3.85,11.47
15,8,-8,-0.9,-0.25,-0.12,25.88,-3.85,11.47
15,8,-7,-0.93,-0.26,-0.1,27.04,-5.43,10.31
15,8,-7,-0.97,-0.25,-0.07,28.63,-6.71,9.03
15,8,-7,-0.99,-0.29,-0.03,31.86,-7.75,8.3
15,8,-7,-1.01,-0.32,-0.02,28.56,-7.26,6.29
15,8,-7,-1.01,-0.32,-0.02,21.91,-7.2,3.3
15,8,-7,-1,-0.31,-0.03,21.91,-7.2,3.3
15,8,-7,-1.04,-0.29,-0.03,21.55,-8.54,1.53
16,8,-7,-1.07,-0.31,-0.03,26.31,-6.59,1.04
16,8,-7,-1.07,-0.31,-0.03,28.81,-1.16,0.55
16,7,-6,-1.07,-0.31,-0.03,27.34,3.3,-0.67
16,7,-6,-1.07,-0.31,-0.03,27.34,3.3,-0.67
16,6,-6,-1.07,-0.29,-0.03,25.33,4.94,-1.95
16,4,-5,-1.06,-0.28,-0.03,23.99,5.98,-2.69
16,2,2,-1.05,-0.29,-0.02,24.23,7.14,-3.23
16,2,3,-1.05,-0.29,-0.02,24.84,8.42,-3.66
15,1,4,-1.04,-0.28,-0.03,24.84,8.42,-3.66
15,1,4,-1.04,-0.27,-0.03,24.78,11.54,-4.09
15,1,5,-1.03,-0.26,-0.03,24.17,15.2,-4.64
15,1,5,-1.02,-0.25,-0.03,22.46,18.01,-5.68
15,1,5,-1.02,-0.25,-0.03,20.39,19.65,-7.02
15,1,5,-1.01,-0.25,-0.04,20.39,19.65,-7.02
15,2,5,-0.99,-0.24,-0.05,18.74,19.17,-8.42
15,2,5,-0.98,-0.24,-0.07,17.76,17.46,-9.58
15,2,5,-0.95,-0.25,-0.08,17.46,15.44,-10.68
15,2,5,-0.95,-0.25,-0.08,17.46,15.44,-10.68
15,2,5,-0.94,-0.26,-0.09,20.51,12.88,-11.05
15,2,5,-0.93,-0.27,-0.09,24.41,11.9,-10.86
15,2,5,-0.92,-0.29,-0.08,28.08,11.35,-10.74
15,2,5,-0.92,-0.31,-0.06,31.49,9.4,-10.86
15,2,5,-0.92,-0.31,-0.06,31.49,9.4,-10.86
15,2,5,-0.92,-0.33,-0.06,32.29,6.59,-11.05
15,2,5,-0.92,-0.34,-0.07,29.79,4.39,-12.02
15,2,5,-0.92,-0.34,-0.08,26.49,2.38,-12.94
15,2,5,-0.92,-0.35,-0.11,22.95,0.43,-13.73
15,3,5,-0.92,-0.35,-0.11,22.95,0.43,-13.73
15,3,5,-0.92,-0.35,-0.13,20.45,-1.71,-13.85
15,3,5,-0.92,-0.35,-0.14,19.96,-3.54,-13.49
15,3,6,-0.92,-0.35,-0.13,20.94,-5.49,-12.63
16,3,6,-0.92,-0.35,-0.12,21.85,-7.93,-11.72
16,3,6,-0.92,-0.35,-0.12,21.85,-7.93,-11.72
17,3,6,-0.92,-0.34,-0.11,22.28,-10.99,-10.31
19,3,6,-0.91,-0.37,-0.11,22.09,-13.67,-8.97
19,3,6,-0.91,-0.38,-0.1,22.52,-16.24,-7.81
19,4,6,-0.9,-0.39,-0.11,21.91,-17.03,-6.29
19,4,6,-0.9,-0.39,-0.11,21.91,-17.03,-6.29
19,4,7,-0.89,-0.41,-0.11,20.69,-16.85,-5.25
20,5,7,-0.88,-0.41,-0.12,18.49,-16.11,-4.46
20,5,7,-0.87,-0.42,-0.13,16.48,-15.38,-3.85
20,5,7,-0.86,-0.41,-0.14,14.95,-14.53,-3.54
20,6,8,-0.86,-0.41,-0.14,12.76,-13.06,-3.6
20,6,8,-0.88,-0.41,-0.17,12.76,-13.06,-3.6
20,6,8,-0.92,-0.38,-0.19,12.7,-12.27,-3.78
20,6,8,-0.97,-0.34,-0.22,12.82,-11.17,-4.46
20,6,8,-1.01,-0.29,-0.24,11.35,-8.91,-5.49
20,6,8,-1.01,-0.29,-0.24,11.84,-7.93,-5.98
20,6,8,-1.04,-0.21,-0.26,11.84,-7.93,-5.98
20,6,8,-1.08,-0.13,-0.26,14.65,-9.46,-6.16
20,6,8,-1.12,-0.07,-0.25,16.97,-12.45,-5.98
20,6,8,-1.13,-0.02,-0.23,18.68,-16.24,-5.86
20,6,8,-1.13,-0.01,-0.19,21.85,-19.96,-5
20,6,8,-1.13,-0.01,-0.19,21.85,-19.96,-5
20,7,8,-1.12,0,-0.16,24.23,-23.86,-4.03
20,7,8,-1.09,-0.01,-0.12,24.84,-27.04,-3.54
20,7,8,-1.08,-0.02,-0.11,23.93,-29.97,-3.42
20,7,8,-1.07,-0.01,-0.11,23.74,-30.52,-3.3
20,7,9,-1.07,-0.01,-0.11,23.74,-30.52,-3.3
19,7,9,-1.06,0,-0.14,23.86,-27.53,-3.11
18,7,9,-1.05,0.01,-0.15,25.63,-23.8,-2.62
15,7,9,-1.04,0.03,-0.17,28.99,-20.26,-1.4
13,7,9,-1.05,0.06,-0.17,33.75,-17.52,0.55
12,7,9,-1.05,0.06,-0.17,33.75,-17.52,0.55
12,7,9,-1.06,0.07,-0.17,38.7,-15.99,2.38
11,7,9,-1.07,0.11,-0.16,43.76,-16.3,3.72
11,7,9,-1.09,0.11,-0.14,49.38,-17.09,4.88
11,7,9,-1.09,0.11,-0.14,49.38,-17.09,4.88
11,7,9,-1.12,0.14,-0.11,56.58,-16.72,5.8
10,7,9,-1.11,0.18,-0.08,63.42,-14.28,5.98
10,7,8,-1.14,0.15,-0.03,71.72,-12.39,6.04
10,7,8,-1.16,0.12,-0.01,78,-10.99,5.55
10,7,8,-1.16,0.12,-0.01,78,-10.99,5.55
9,7,8,-1.14,0.08,0,76.6,-10.07,3.66
9,7,8,-1.12,0.02,-0.02,71.59,-10.86,2.32
8,7,8,-1.1,-0.01,-0.05,65.25,-10.56,2.26
8,7,8,-1.1,-0.01,-0.05,57.62,-7.81,2.08
8,7,8,-1.07,-0.02,-0.09,57.62,-7.81,2.08
8,6,8,-1.05,0,-0.12,52.49,-3.78,3.17
8,6,8,-1.06,0.05,-0.15,49.99,2.44,4.64
8,6,8,-1.06,0.1,-0.18,48.65,10.86,4.94
8,7,8,-1.06,0.1,-0.18,48.65,10.86,4.94
8,7,8,-1.08,0.14,-0.21,46.63,17.52,4.15
8,7,8,-1.09,0.17,-0.24,44.25,21.06,2.14
7,7,8,-1.09,0.18,-0.27,42.6,22.03,-0.18
7,7,8,-1.09,0.18,-0.27,41.87,21.79,-2.5
7,7,8,-1.09,0.18,-0.29,41.87,21.79,-2.5
7,7,8,-1.08,0.17,-0.32,42.6,20.75,-3.97
7,7,8,-1.05,0.14,-0.34,45.78,17.58,-5.37
7,7,8,-1.02,0.1,-0.36,49.5,14.16,-6.53
6,7,8,-1.02,0.1,-0.36,49.5,14.16,-6.53
6,7,8,-1,0.08,-0.39,53.04,10.38,-7.02
5,7,7,-0.97,0.04,-0.39,57.01,6.1,-6.9
5,7,7,-0.94,-0.01,-0.38,60.61,1.65,-6.53
5,8,7,-0.94,-0.01,-0.38,61.22,-0.55,-6.35
5,8,7,-0.93,-0.03,-0.37,61.22,-0.55,-6.35
5,8,7,-0.92,-0.05,-0.35,61.34,-0.61,-5.74
5,8,7,-0.91,-0.05,-0.31,61.58,0.73,-5
5,9,7,-0.91,-0.05,-0.27,60.67,2.38,-4.76
5,9,7,-0.93,-0.04,-0.24,58.29,4.76,-5.07
5,9,7,-0.93,-0.04,-0.24,58.29,4.76,-5.07
5,9,7,-0.94,-0.03,-0.21,54.87,7.39,-5.62
5,9,7,-0.96,-0.03,-0.2,50.72,10.01,-6.65
5,9,8,-0.98,-0.04,-0.19,46.14,13.06,-7.81
4,9,9,-0.98,-0.04,-0.19,40.95,16.48,-9.09
3,9,13,-0.99,-0.04,-0.19,40.95,16.48,-9.09
3,9,22,-0.99,-0.03,-0.2,35.22,18.98,-10.62
2,9,37,-0.99,-0.02,-0.21,30.82,20.26,-11.47
2,9,40,-0.99,-0.01,-0.23,28.26,20.51,-11.72
2,10,41,-0.99,-0.01,-0.23,28.26,20.51,-11.72
2,10,42,-0.98,0,-0.25,26.49,19.71,-11.6
2,10,42,-0.98,0.01,-0.27,25.88,18.31,-11.23
2,10,42,-0.98,0.01,-0.3,25.7,17.15,-10.86
2,11,42,-0.98,0,-0.32,25.88,16.48,-10.07
2,11,42,-0.98,0,-0.32,25.88,16.48,-10.07
2,11,42,-0.98,-0.02,-0.34,26.31,15.2,-8.61
2,11,42,-0.98,-0.04,-0.36,27.4,13.12,-6.41
2,11,42,-0.98,-0.05,-0.36,28.26,11.41,-4.46
2,11,42,-0.98,-0.05,-0.36,28.38,9.83,-2.62
2,11,42,-0.98,-0.06,-0.36,28.38,9.83,-2.62
2,11,42,-0.99,-0.05,-0.34,28.44,8.36,-0.92
2,12,42,-0.98,-0.04,-0.32,28.14,7.39,0.55
2,12,42,-1,-0.02,-0.3,27.1,6.53,1.1
2,13,42,-1,-0.02,-0.3,27.1,6.53,1.1
2,13,42,-1.01,0,-0.27,26.18,5.43,1.59
2,13,42,-1.03,0.01,-0.25,27.04,4.94,2.01
2,13,42,-1.04,0.02,-0.23,26.79,6.04,2.2
2,13,42,-1.04,0.02,-0.23,24.35,7.57,1.65
2,13,42,-1.05,0.02,-0.21,24.35,7.57,1.65
1,13,42,-1.07,0.04,-0.2,22.34,9.28,0.98
1,13,42,-1.09,0.03,-0.16,23.56,11.78,1.1
1,13,42,-1.09,0.03,-0.16,26.18,15.93,1.83
1,13,42,-1.09,0.02,-0.14,26.18,15.93,1.83
1,13,42,-1.08,0.01,-0.11,25.39,20.45,1.89
1,13,42,-1.08,0.01,-0.1,21.91,24.05,1.28
0,13,42,-1.06,0.01,-0.11,17.7,27.28,0.55
0,12,41,-1.06,0.01,-0.11,17.7,27.28,0.55
0,12,36,-1.04,0.01,-0.13,15.01,30.52,0.18
0,12,32,-1.02,0.02,-0.16,14.53,32.78,0.79
0,12,27,-1,0.03,-0.18,15.26,34.24,1.77
0,12,23,-1,0.03,-0.18,15.26,34.24,1.77
0,12,19,-0.98,0.04,-0.2,16.66,35.22,2.75
0,12,15,-0.97,0.04,-0.23,18.31,36.07,3.85
-1,12,12,-0.97,0.03,-0.23,20.02,34.48,5.07
-1,12,8,-0.97,0.03,-0.23,20.02,34.48,5.07
-1,12,4,-0.97,0.02,-0.27,20.08,31.8,6.23
-1,12,0,-0.92,0.04,-0.3,17.33,31.25,6.77
-1,12,-5,-0.91,0.04,-0.31,18.74,27.1,8.42
-1,12,-10,-0.91,0.04,-0.31,24.96,20.81,10.99
-1,12,-14,-0.91,0.04,-0.3,24.96,20.81,10.99
-2,12,-18,-0.92,0.03,-0.28,30.09,16.3,13.61
-2,12,-23,-0.92,0.03,-0.26,32.1,14.47,15.63
-2,12,-31,-0.9,0.03,-0.23,31.62,12.63,16.6
-2,12,-43,-0.9,0.03,-0.23,29.79,9.03,17.82
-2,13,-56,-0.9,0.03,-0.2,29.79,9.03,17.82
-2,12,-59,-0.92,0.04,-0.18,29.3,4.94,19.17
-2,12,-59,-0.94,0.04,-0.16,29.54,3.48,20.45
-2,12,-60,-0.95,0.04,-0.15,29.42,3.66,21.36
-2,12,-60,-0.95,0.04,-0.15,29.42,3.66,21.36
-2,12,-60,-0.95,0.03,-0.14,28.32,4.27,22.16
-2,12,-60,-0.94,0.04,-0.13,26.18,3.54,22.64
-2,12,-60,-0.95,0.05,-0.13,23.62,1.65,23.07
-2,12,-60,-0.94,0.07,-0.12,20.57,-0.98,23.25
-2,12,-60,-0.94,0.07,-0.12,20.57,-0.98,23.25
-2,12,-60,-0.94,0.08,-0.12,18.98,-3.36,23.32
-2,12,-60,-0.93,0.09,-0.12,18.19,-4.64,23.19
-2,11,-60,-0.94,0.08,-0.13,17.94,-4.76,23.13
-2,11,-60,-0.97,0.07,-0.15,18.31,-4.88,22.77
-2,10,-60,-0.97,0.07,-0.15,18.31,-4.88,22.77
-2,10,-60,-1.03,0.06,-0.18,18.74,-4.82,22.77
-2,10,-60,-1.12,0.05,-0.24,19.29,-2.56,22.71
-2,10,-60,-1.2,0.05,-0.29,21.42,1.4,22.71
-2,10,-60,-1.26,0.01,-0.33,24.96,4.46,22.28
-2,10,-60,-1.26,0.01,-0.33,24.96,4.46,22.28
-2,10,-60,-1.28,-0.02,-0.34,26.86,3.78,20.81
-2,10,-60,-1.26,-0.06,-0.32,29.54,-3.17,19.35
-2,10,-60,-1.25,-0.1,-0.28,32.71,-14.4,18.25
-2,10,-60,-1.26,-0.15,-0.24,34.91,-26,17.33
-2,10,-60,-1.26,-0.15,-0.24,34.91,-26,17.33
-2,10,-60,-1.31,-0.19,-0.21,35.28,-33.26,17.03
-2,10,-60,-1.34,-0.21,-0.17,35.22,-34.61,17.52
-2,10,-60,-1.35,-0.22,-0.1,35.83,-33.14,18.31
-2,10,-60,-1.32,-0.2,-0.01,35.89,-30.33,18.8
-2,10,-60,-1.32,-0.2,-0.01,35.28,-26.79,18.8
-2,10,-60,-1.24,-0.2,0.08,35.28,-26.79,18.8
-2,10,-60,-1.15,-0.16,0.14,33.81,-23.38,18.07
-2,10,-60,-1.05,-0.14,0.16,31.19,-18.98,16.85
-1,10,-60,-0.94,-0.12,0.14,26.55,-14.22,14.65
0,10,-60,-0.94,-0.12,0.14,21.67,-10.13,11.96
1,10,-60,-0.85,-0.12,0.14,21.67,-10.13,11.96
2,10,-60,-0.78,-0.11,0.09,15.63,-5.31,9.28
2,10,-60,-0.74,-0.13,0.05,10.86,0.18,7.39
3,10,-60,-0.68,-0.14,0.02,6.53,7.32,5.74
3,9,-60,-0.68,-0.14,0.02,6.53,7.32,5.74
3,9,-60,-0.67,-0.14,-0.04,-0.92,11.41,3.66
4,9,-60,-0.7,-0.17,-0.08,-5.62,11.23,1.71
4,9,-60,-0.74,-0.18,-0.13,-7.51,9.4,0.67
4,9,-60,-0.8,-0.14,-0.19,-6.84,7.81,0.24
4,9,-60,-0.8,-0.14,-0.19,-6.84,7.81,0.24
4,9,-60,-0.85,-0.12,-0.23,-0.06,6.41,0.18
4,9,-60,-0.91,-0.1,-0.25,7.14,1.77,0.31
4,9,-60,-0.96,-0.08,-0.25,14.28,-3.23,0.92
4,9,-60,-1.01,-0.1,-0.24,22.83,-11.6,1.89
4,9,-60,-1.01,-0.1,-0.24,22.83,-11.6,1.89
4,9,-60,-1.1,-0.13,-0.2,30.33,-24.84,3.42
4,9,-60,-1.15,-0.17,-0.13,38.7,-36.62,5.98
4,9,-60,-1.19,-0.21,-0.04,48.65,-40.22,9.03
4,9,-60,-1.19,-0.27,0.04,51.64,-36.62,10.74
4,9,-60,-1.19,-0.27,0.04,46.94,-34.91,10.8
4,9,-60,-1.18,-0.31,0.09,46.94,-34.91,10.8
5,9,-60,-1.2,-0.33,0.09,40.04,-32.96,10.93
5,9,-59,-1.17,-0.34,0.07,31.86,-24.84,10.86
5,9,-59,-1.16,-0.35,0.03,23.8,-13.61,10.8
5,9,-59,-1.16,-0.35,0.03,23.8,-13.61,10.8
5,9,-59,-1.13,-0.32,-0.04,18.49,-2.5,11.05
5,9,-59,-1.08,-0.3,-0.1,14.16,8.54,11.41
5,9,-59,-1.01,-0.28,-0.15,10.25,17.46,11.35
5,9,-59,-0.96,-0.26,-0.18,6.71,22.09,11.05
6,9,-59,-0.96,-0.26,-0.18,6.71,22.09,11.05
8,9,-59,-0.92,-0.26,-0.2,3.17,22.71,10.13
10,9,-59,-0.89,-0.25,-0.22,0.55,22.46,9.34
11,9,-59,-0.86,-0.24,-0.25,0.18,21.42,8.91
12,9,-59,-0.85,-0.22,-0.27,1.1,19.65,8.85
12,9,-59,-0.85,-0.22,-0.27,1.1,19.65,8.85
13,9,-59,-0.84,-0.19,-0.28,2.87,18.31,8.85
13,9,-59,-0.85,-0.19,-0.28,5.31,16.24,8.61
13,9,-58,-0.86,-0.19,-0.26,6.59,13.79,8.12
13,9,-58,-0.87,-0.19,-0.23,6.77,11.54,7.45
13,9,-57,-0.87,-0.19,-0.23,6.77,11.54,7.45
13,10,-57,-0.89,-0.19,-0.19,6.23,9.52,6.35
13,10,-55,-0.91,-0.19,-0.16,5.19,7.63,4.82
13,10,-54,-0.93,-0.2,-0.14,2.69,5.8,2.87
13,10,-54,-0.95,-0.2,-0.13,-0.92,5.62,0.85
13,10,-54,-0.95,-0.2,-0.13,-0.92,5.62,0.85
12,10,-53,-0.97,-0.21,-0.12,-4.52,7.57,-1.22
12,10,-53,-0.98,-0.21,-0.12,-8.36,10.19,-3.05
12,10,-53,-1,-0.23,-0.13,-11.54,12.45,-4.7
12,10,-53,-1,-0.23,-0.14,-14.1,14.34,-6.35
12,9,-52,-1,-0.23,-0.14,-16.11,16.17,-7.75
12,9,-51,-0.99,-0.24,-0.15,-16.11,16.17,-7.75
13,9,-49,-0.99,-0.25,-0.16,-17.21,17.76,-8.73
13,9,-44,-0.98,-0.27,-0.16,-17.09,19.17,-9.22
13,9,-31,-0.97,-0.27,-0.16,-17.09,20.81,-9.58
13,9,-15,-0.95,-0.27,-0.15,-16.3,21.85,-9.77
13,9,-7,-0.95,-0.27,-0.15,-16.3,21.85,-9.77
13,9,-5,-0.94,-0.28,-0.13,-16.36,22.89,-10.31
13,9,-3,-0.93,-0.27,-0.13,-17.82,23.74,-11.23
13,9,-3,-0.92,-0.28,-0.12,-19.29,23.56,-12.39
13,9,-3,-0.9,-0.28,-0.13,-24.17,23.56,-14.1
13,8,-2,-0.89,-0.27,-0.14,-28.44,22.16,-15.75
13,8,-2,-0.89,-0.27,-0.14,-28.44,22.16,-15.75
13,8,-1,-0.89,-0.27,-0.14,-29.17,19.41,-16.91
14,9,0,-0.88,-0.28,-0.15,-29.66,17.21,-17.7
14,9,1,-0.87,-0.29,-0.15,-31.19,14.71,-18.68
14,9,2,-0.87,-0.28,-0.17,-33.02,11.05,-19.41
15,9,3,-0.87,-0.28,-0.17,-34.55,7.14,-19.96
15,9,3,-0.86,-0.27,-0.17,-34.55,7.14,-19.96
15,9,4,-0.84,-0.26,-0.16,-34.48,2.99,-20.14
15,9,4,-0.83,-0.25,-0.16,-34.12,-2.08,-20.02
16,9,5,-0.84,-0.23,-0.15,-34.36,-7.93,-20.2
16,9,6,-0.84,-0.22,-0.14,-34.79,-13.12,-20.14
16,9,6,-0.84,-0.22,-0.14,-34.79,-13.12,-20.14
16,9,7,-0.86,-0.23,-0.14,-34.06,-16.78,-19.9
16,9,9,-0.88,-0.25,-0.14,-32.59,-19.35,-19.96
16,9,11,-0.92,-0.27,-0.16,-31.43,-20.69,-19.96
16,9,15,-1,-0.29,-0.21,-31.56,-21.36,-20.45
16,9,16,-1,-0.29,-0.21,-32.35,-20.63,-21
16,10,17,-1.1,-0.29,-0.28,-32.35,-20.63,-21
15,10,17,-1.2,-0.27,-0.37,-34.12,-18.13,-21.79
15,10,17,-1.3,-0.21,-0.46,-37.17,-17.52,-21.73
15,10,17,-1.36,-0.13,-0.51,-40.65,-22.16,-20.63
15,10,17,-1.41,-0.01,-0.5,-42.54,-33.45,-19.17
15,10,17,-1.41,-0.01,-0.5,-42.54,-33.45,-19.17
15,10,17,-1.45,0.07,-0.44,-42.72,-49.44,-18.55
15,10,17,-1.48,0.12,-0.33,-39.06,-63.48,-18.55
15,10,17,-1.48,0.13,-0.2,-30.88,-74.1,-18.37
15,10,17,-1.49,0.13,-0.08,-19.17,-79.9,-17.21
15,10,17,-1.49,0.13,-0.08,-5.07,-77.88,-15.75
15,10,17,-1.45,0.07,0.02,-5.07,-77.88,-15.75
15,10,17,-1.38,-0.01,0.08,2.01,-67.93,-14.53
15,10,17,-1.3,-0.08,0.14,1.4,-52.37,-13.55
15,10,17,-1.21,-0.1,0.18,-4.09,-31.19,-12.39
15,10,17,-1.21,-0.1,0.18,-13.49,-8.06,-12.63
15,10,17,-1.11,-0.12,0.21,-13.49,-8.06,-12.63
15,10,17,-0.98,-0.1,0.16,-30.09,10.68,-14.1
15,10,17,-0.92,-0.08,0.04,-49.01,20.81,-16.11
15,10,17,-0.82,-0.06,-0.03,-60.42,24.05,-17.27
15,10,17,-0.82,-0.06,-0.03,-68.91,27.95,-18.01
14,10,17,-0.74,0,-0.11,-68.91,27.95,-18.01
14,10,17,-0.68,0.01,-0.16,-73,33.87,-18.62
14,10,17,-0.68,0.04,-0.2,-68.18,36.25,-17.4
14,10,17,-0.7,0.09,-0.23,-64.21,37.66,-16.42
14,10,17,-0.7,0.09,-0.23,-66.83,37.17,-16.85
14,10,17,-0.71,0.13,-0.27,-66.83,37.17,-16.85
14,10,17,-0.77,0.17,-0.3,-69.64,33.08,-16.78
14,10,17,-0.86,0.22,-0.29,-69.15,27.95,-15.69
13,10,17,-0.98,0.26,-0.23,-71.35,24.54,-14.65
13,10,17,-0.99,0.36,-0.16,-83.19,24.84,-14.34
13,10,17,-0.99,0.36,-0.16,-83.19,24.84,-14.34
13,10,17,-1,0.38,-0.07,-91.86,25.02,-17.21
13,10,17,-1.03,0.42,0,-94.36,5.25,-17.94
13,10,17,-1.11,0.43,0.01,-92.83,-17.88,-18.62
13,10,17,-1.11,0.43,0.01,-91.49,-28.81,-19.96
13,10,17,-1.1,0.38,-0.01,-91.49,-28.81,-19.96
12,10,17,-1.04,0.32,-0.05,-87.59,-28.63,-20.94
12,9,17,-1.01,0.28,-0.08,-80.44,-27.28,-19.84
11,9,17,-1.02,0.25,-0.12,-69.82,-26.25,-17.27
11,9,17,-1.05,0.23,-0.15,-59.39,-21.61,-14.22
10,9,17,-1.05,0.23,-0.15,-59.39,-21.61,-14.22
10,9,16,-1.07,0.21,-0.16,-50.66,-12.7,-11.41
10,9,16,-1.07,0.19,-0.17,-45.23,-3.54,-9.95
10,9,16,-1.04,0.19,-0.17,-46.57,1.46,-9.83
10,9,16,-1.04,0.17,-0.18,-48.1,1.28,-10.5
10,9,16,-1.04,0.17,-0.18,-48.1,1.28,-10.5
9,9,16,-1.01,0.12,-0.18,-48.03,-0.61,-11.41
9,9,16,-1.01,0.1,-0.21,-48.65,-0.67,-11.96
9,10,16,-0.99,0.06,-0.21,-44.92,0.79,-11.54
9,10,16,-0.99,0.02,-0.2,-39.61,3.42,-11.17
9,10,16,-0.99,0.02,-0.2,-39.61,3.42,-11.17
8,10,16,-0.97,-0.01,-0.18,-37.11,6.29,-11.11
8,10,16,-0.97,-0.02,-0.16,-37.66,8.73,-11.72
8,10,16,-0.97,-0.03,-0.15,-40.34,11.05,-12.76
8,10,16,-0.96,-0.03,-0.14,-43.64,13.37,-13.85
8,10,16,-0.96,-0.03,-0.14,-47.61,16.42,-14.28
8,10,16,-0.96,-0.01,-0.14,-47.61,16.42,-14.28
8,10,16,-0.95,0.01,-0.15,-52.12,20.81,-14.59
7,10,16,-0.94,0.03,-0.16,-55.73,25.33,-13.92
7,10,16,-0.93,0.06,-0.17,-58.04,28.56,-12.94
6,10,16,-0.93,0.06,-0.17,-60,30.58,-11.9
6,10,16,-0.92,0.08,-0.19,-60,30.58,-11.9
6,10,16,-0.91,0.11,-0.21,-60.79,30.76,-10.25
6,10,16,-0.9,0.13,-0.22,-61.04,29.66,-8.36
5,10,16,-0.89,0.14,-0.24,-61.65,27.65,-6.65
5,10,16,-0.89,0.14,-0.24,-62.62,23.8,-4.94
5,10,16,-0.89,0.15,-0.26,-62.62,23.8,-4.94
5,10,16,-0.89,0.16,-0.27,-62.26,19.04,-3.17
5,10,15,-0.9,0.17,-0.28,-60.24,14.47,-1.22
4,10,14,-0.9,0.17,-0.28,-58.17,10.8,1.28
4,10,13,-0.9,0.17,-0.28,-58.17,10.8,1.28
4,11,11,-0.89,0.18,-0.28,-56.7,7.2,3.6
3,11,6,-0.89,0.18,-0.27,-55.6,2.62,5.68
2,11,1,-0.89,0.19,-0.27,-54.99,-2.5,7.57
1,11,-3,-0.89,0.19,-0.27,-54.44,-6.96,9.22
0,12,-6,-0.89,0.19,-0.27,-54.44,-6.96,9.22
-1,13,-8,-0.9,0.19,-0.26,-53.1,-10.68,10.8
-3,14,-10,-0.9,0.19,-0.25,-50.78,-13.92,13.06
-4,14,-11,-0.91,0.19,-0.23,-48.22,-17.27,15.44
-6,14,-12,-0.93,0.19,-0.19,-46.57,-21,17.21
-7,14,-13,-0.93,0.19,-0.19,-46.26,-24.35,18.49
-9,14,-13,-0.94,0.21,-0.16,-46.26,-24.35,18.49
-10,14,-13,-0.97,0.2,-0.15,-48.89,-26.67,18.92
-11,14,-13,-1.01,0.19,-0.14,-51.03,-28.69,19.84
-11,14,-13,-1.09,0.17,-0.14,-47.06,-29.72,22.03
-10,14,-13,-1.19,0.12,-0.14,-39.67,-27.28,24.54
-10,14,-13,-1.19,0.12,-0.14,-39.67,-27.28,24.54
-10,14,-14,-1.29,0.05,-0.17,-31.98,-22.64,26.31
-10,14,-14,-1.37,-0.02,-0.19,-25.63,-19.1,26.49
-10,13,-14,-1.4,-0.08,-0.2,-20.26,-18.62,26.37
-10,13,-14,-1.4,-0.14,-0.17,-16.05,-21,26
-10,13,-14,-1.38,-0.17,-0.13,-15.44,-25.21,25.21
-10,12,-14,-1.38,-0.17,-0.13,-15.44,-25.21,25.21
-10,12,-14,-1.34,-0.2,-0.11,-18.98,-28.44,23.74
-10,11,-14,-1.31,-0.22,-0.09,-23.44,-28.87,22.95
-10,11,-13,-1.29,-0.23,-0.08,-24.84,-27.1,22.64
-10,11,-13,-1.24,-0.22,-0.06,-26.43,-23.74,22.22
-10,11,-13,-1.17,-0.21,-0.03,-28.2,-19.78,21.67
-10,11,-13,-1.17,-0.21,-0.03,-28.2,-19.78,21.67
-10,10,-13,-1.1,-0.19,-0.02,-30.7,-14.22,21.12
-10,10,-13,-1.01,-0.17,-0.02,-34.79,-7.87,20.26
-9,10,-13,-0.94,-0.14,-0.04,-39.49,-3.6,18.86
-8,10,-13,-0.88,-0.11,-0.08,-45.72,0.12,16.78
-6,10,-13,-0.83,-0.13,-0.12,-52.31,2.44,14.59
-5,10,-13,-0.83,-0.13,-0.12,-52.31,2.44,14.59
-4,10,-13,-0.81,-0.14,-0.16,-58.23,3.3,12.63
-3,10,-13,-0.81,-0.12,-0.21,-64.09,4.52,11.54
-2,10,-13,-0.81,-0.14,-0.23,-68.18,6.59,10.62
-1,10,-13,-0.83,-0.18,-0.25,-71.23,9.77,10.68
0,10,-13,-0.83,-0.18,-0.25,-72.63,8.18,11.05
0,10,-13,-0.84,-0.18,-0.28,-72.63,8.18,11.05
0,10,-13,-0.88,-0.17,-0.33,-72.94,2.69,11.47
1,10,-12,-0.93,-0.14,-0.33,-69.82,-2.69,12.27
1,10,-12,-0.97,-0.11,-0.33,-63.84,-10.44,12.63
1,10,-12,-1.05,-0.04,-0.28,-59.39,-21.36,11.9
1,10,-12,-1.05,-0.04,-0.28,-59.39,-21.36,11.9
1,10,-11,-1.12,-0.03,-0.2,-51.7,-26.37,10.93
1,10,-11,-1.18,-0.05,-0.11,-48.77,-27.1,8.54
1,10,-11,-1.23,-0.08,-0.04,-52,-27.1,5.98
1,10,-11,-1.24,-0.08,0,-55.36,-24.6,2.99
1,10,-11,-1.24,-0.08,0,-57.98,-19.47,-0.06
1,10,-11,-1.22,-0.13,0.03,-57.98,-19.47,-0.06
1,10,-11,-1.2,-0.16,0.01,-61.04,-11.17,-2.5
1,10,-11,-1.15,-0.16,-0.02,-64.15,-1.59,-4.15
1,10,-11,-1.1,-0.18,-0.06,-68.48,6.1,-6.29
1,10,-11,-1.05,-0.2,-0.1,-76.42,11.05,-9.22
1,10,-11,-1.05,-0.2,-0.1,-84.66,14.95,-12.02
1,10,-11,-1.02,-0.2,-0.16,-84.66,14.95,-12.02
2,10,-11,-0.98,-0.2,-0.2,-88.99,18.74,-13.49
2,10,-11,-0.93,-0.2,-0.24,-91.8,22.09,-14.59
2,10,-11,-0.9,-0.21,-0.26,-93.63,24.66,-15.5
2,10,-11,-0.87,-0.2,-0.27,-94.06,25.39,-15.93
2,10,-11,-0.87,-0.2,-0.27,-94.06,25.39,-15.93
3,10,-11,-0.86,-0.2,-0.27,-94.91,23.74,-16.6
3,10,-10,-0.86,-0.2,-0.26,-96.44,20.39,-17.09
4,10,-10,-0.87,-0.19,-0.25,-96.44,16.66,-16.85
5,10,-10,-0.88,-0.19,-0.24,-96.31,14.47,-16.78
6,10,-9,-0.88,-0.17,-0.23,-97.47,13.06,-16.91
7,10,-7,-0.88,-0.17,-0.23,-97.47,13.06,-16.91
8,11,0,-0.9,-0.17,-0.21,-96.07,11.29,-16.3
8,11,20,-0.92,-0.15,-0.2,-93.44,10.5,-15.69
8,11,22,-0.93,-0.16,-0.17,-91.86,11.11,-15.5
8,11,23,-0.94,-0.16,-0.15,-89.78,11.72,-15.14
8,11,23,-0.94,-0.16,-0.15,-89.78,11.72,-15.14
8,11,23,-0.95,-0.18,-0.13,-88.44,12.82,-14.95
8,11,23,-0.96,-0.2,-0.12,-87.59,13.67,-15.08
8,11,23,-0.98,-0.22,-0.12,-87.34,14.28,-15.56
9,11,23,-0.98,-0.23,-0.12,-88.07,14.77,-16.24
9,11,23,-0.98,-0.23,-0.12,-89.66,14.71,-17.09
9,10,23,-0.99,-0.25,-0.13,-89.66,14.71,-17.09
9,10,23,-1,-0.26,-0.14,-92.16,14.1,-18.01
9,10,23,-1,-0.26,-0.15,-94.42,12.88,-18.62
9,10,23,-0.99,-0.26,-0.16,-96.01,11.41,-19.17
9,10,23,-0.99,-0.26,-0.16,-96.56,9.83,-19.47
9,10,24,-0.99,-0.25,-0.16,-96.56,9.83,-19.47
10,9,24,-0.97,-0.25,-0.16,-96.44,8.18,-19.65
10,9,24,-0.95,-0.25,-0.15,-95.21,6.35,-19.29
11,9,25,-0.96,-0.23,-0.14,-94.6,3.72,-18.8
11,9,25,-0.95,-0.2,-0.13,-95.09,2.93,-18.55
11,9,25,-0.95,-0.2,-0.13,-95.09,2.93,-18.55
11,9,26,-0.95,-0.2,-0.12,-94.6,2.81,-18.31
11,9,27,-0.94,-0.17,-0.11,-94.73,1.4,-18.01
11,9,29,-0.96,-0.15,-0.11,-96.5,-0.43,-18.07
11,8,29,-0.95,-0.13,-0.11,-98.08,-1.28,-18.01
11,8,29,-0.95,-0.13,-0.11,-98.14,-1.71,-17.46
11,8,29,-0.97,-0.1,-0.13,-98.14,-1.71,-17.46
11,8,29,-0.98,-0.08,-0.16,-96.68,-2.2,-16.24
11,8,29,-0.99,-0.06,-0.17,-93.44,-2.75,-14.59
11,8,29,-1.01,-0.05,-0.18,-87.65,-4.15,-12.45
11,8,29,-1.05,-0.04,-0.19,-80.14,-5.49,-10.01
11,8,29,-1.05,-0.04,-0.19,-80.14,-5.49,-10.01
11,8,29,-1.09,-0.03,-0.18,-72.39,-5.62,-7.45
11,8,29,-1.12,-0.01,-0.17,-67.2,-5.31,-5.19
11,8,29,-1.13,0.02,-0.17,-65.49,-7.26,-3.97
11,8,29,-1.15,0.03,-0.15,-61.65,-11.84,-2.93
11,8,29,-1.16,0.03,-0.12,-56.03,-17.21,-1.46
10,8,29,-1.16,0.03,-0.12,-56.03,-17.21,-1.46
10,8,29,-1.14,0.01,-0.1,-52.06,-20.69,-0.61
10,8,29,-1.11,-0.01,-0.07,-49.93,-22.71,0
9,8,29,-1.08,-0.04,-0.06,-48.46,-24.54,0.18
9,8,29,-1.04,-0.06,-0.05,-47,-24.41,-0.12
9,8,29,-1.04,-0.06,-0.05,-47,-24.41,-0.12
9,8,29,-1.01,-0.06,-0.05,-45.23,-21.61,-0.24
9,8,29,-0.97,-0.04,-0.06,-44.13,-17.76,-0.24
8,8,29,-0.93,-0.02,-0.08,-44.43,-13.92,-0.67
8,8,29,-0.9,0.02,-0.11,-45.78,-11.72,-1.22
8,8,29,-0.9,0.02,-0.11,-47.12,-11.66,-1.4
8,8,29,-0.88,0.06,-0.14,-47.12,-11.66,-1.4
7,8,29,-0.86,0.11,-0.17,-46.57,-13.12,-1.59
7,8,29,-0.86,0.13,-0.18,-43.21,-14.4,-1.59
7,8,29,-0.87,0.12,-0.19,-37.9,-15.93,-1.1
7,8,29,-0.89,0.14,-0.2,-31.07,-18.92,-0.18
7,8,29,-0.89,0.14,-0.2,-31.07,-18.92,-0.18
7,8,29,-0.91,0.14,-0.22,-24.54,-21.61,0.43
7,8,29,-0.93,0.14,-0.22,-17.03,-24.84,0.43
7,8,29,-0.96,0.13,-0.22,-10.31,-30.21,-0.73
7,8,28,-0.97,0.05,-0.22,-5.74,-36.44,-2.5
6,8,27,-0.97,0.05,-0.22,-5.74,-36.44,-2.5
6,9,27,-1,0.01,-0.24,-3.23,-43.33,-2.99
6,10,27,-1.05,0.03,-0.24,-3.17,-49.87,-3.78
6,10,27,-1.08,0.01,-0.19,-3.78,-54.38,-5.31
6,10,27,-1.1,0.01,-0.15,-7.2,-57.07,-8.12
6,10,27,-1.1,0.01,-0.15,-7.2,-57.07,-8.12
6,10,26,-1.09,0.03,-0.1,-12.33,-58.78,-12.08
6,10,26,-1.12,0.07,-0.06,-18.68,-59.51,-16.72
5,10,26,-1.12,0.08,-0.03,-26.49,-53.59,-22.09
5,10,26,-1.12,0.09,-0.03,-34.61,-44.19,-27.53
5,10,26,-1.12,0.09,-0.03,-42.54,-34.85,-32.59
4,10,26,-1.1,0.1,-0.05,-42.54,-34.85,-32.59
4,10,26,-1.03,0.06,-0.06,-48.22,-24.35,-36.07
4,10,26,-1.01,0.07,-0.08,-54.38,-14.4,-37.84
4,10,26,-0.97,0.07,-0.09,-61.28,-5.8,-39.73
3,10,26,-0.97,0.07,-0.09,-66.16,1.46,-40.71
2,10,26,-0.91,0.06,-0.12,-66.16,1.46,-40.71
1,10,26,-0.87,0.06,-0.16,-68.54,5.98,-41.2
-1,10,26,-0.84,0.07,-0.18,-68.79,8.61,-40.83
-2,10,26,-0.83,0.06,-0.19,-67.44,9.95,-40.16
-2,10,26,-0.84,0.05,-0.19,-65.67,11.17,-39.73
-3,10,26,-0.84,0.05,-0.19,-65.67,11.17,-39.73
-3,10,26,-0.88,0.05,-0.2,-64.82,13.06,-39.25
-3,10,25,-0.94,0.09,-0.21,-65.37,14.28,-39
-4,10,25,-1.01,0.14,-0.21,-67.63,16.11,-39.12
-4,10,25,-1.08,0.2,-0.18,-70.62,18.92,-39.55
-4,10,24,-1.08,0.2,-0.18,-70.62,18.92,-39.55
-4,10,24,-1.14,0.25,-0.13,-73.12,23.07,-40.04
-4,10,24,-1.2,0.31,-0.07,-75.13,28.02,-40.71
-4,10,24,-1.25,0.38,-0.04,-77.03,31.74,-41.63
-4,10,24,-1.25,0.44,-0.01,-75.07,37.48,-42.42
-4,10,24,-1.25,0.44,-0.01,-75.07,37.48,-42.42
-4,10,24,-1.22,0.47,-0.03,-66.77,44.92,-42.3
-4,10,24,-1.14,0.43,-0.08,-58.35,46.88,-41.81
-4,10,24,-1.05,0.35,-0.14,-53.96,44.25,-41.44
-4,10,24,-0.98,0.28,-0.22,-49.5,39.86,-39.18
-4,10,24,-0.98,0.28,-0.22,-42.42,36.5,-35.22
-4,10,24,-0.92,0.22,-0.3,-42.42,36.5,-35.22
-4,10,24,-0.88,0.16,-0.34,-34.73,32.1,-30.03
-4,10,24,-0.87,0.14,-0.35,-29.54,26.61,-24.84
-4,10,24,-0.86,0.14,-0.36,-29.05,21.12,-20.14
-4,10,24,-0.86,0.12,-0.33,-31.31,14.77,-16.6
-4,10,24,-0.86,0.12,-0.33,-31.31,14.77,-16.6
-4,10,24,-0.91,0.15,-0.3,-31.37,7.87,-13.55
-4,10,24,-0.94,0.12,-0.24,-29.05,2.87,-10.5
-4,10,23,-0.95,0.07,-0.18,-28.14,-0.18,-8.12
-4,10,23,-0.98,0.05,-0.15,-30.94,-3.91,-6.04
-4,10,22,-0.98,0.05,-0.15,-30.94,-3.91,-6.04
-4,10,18,-0.99,0.05,-0.12,-33.08,-5.19,-4.09
-4,10,9,-1,0.04,-0.08,-32.65,-3.36,-2.56
-4,10,8,-1,0.06,-0.06,-33.63,-0.43,-1.04
-4,10,7,-1,0.06,-0.05,-36.62,2.26,-0.12
-4,10,7,-1,0.06,-0.05,-40.47,3.72,0.12
-4,10,7,-1,0.05,-0.05,-40.47,3.72,0.12
-4,10,7,-1.02,0.06,-0.08,-46.02,4.88,0.06
-4,10,7,-1.04,0.09,-0.12,-51.7,7.08,0.37
-4,9,7,-1.05,0.11,-0.16,-55.73,8.61,0.73
-4,9,7,-1.05,0.11,-0.16,-55.73,8.61,0.73
-4,9,6,-1.06,0.14,-0.19,-58.84,8.97,1.53
-4,9,6,-1.06,0.19,-0.2,-60.06,8.48,2.69
-4,9,5,-1.06,0.21,-0.21,-59.63,7.08,3.72
-4,9,5,-1.05,0.22,-0.21,-58.84,4.27,3.97
-4,9,4,-1.05,0.22,-0.21,-58.84,4.27,3.97
-4,9,3,-1.04,0.2,-0.21,-59.14,-0.06,3.97
-5,10,3,-1.02,0.2,-0.22,-60.24,-4.94,4.33
-5,10,2,-1.01,0.2,-0.23,-59.57,-9.28,5.13
-5,10,1,-1.01,0.21,-0.22,-56.21,-11.6,6.65
-5,10,0,-1.01,0.21,-0.22,-51.94,-11.6,8.18
-5,10,-3,-1,0.19,-0.2,-51.94,-11.6,8.18
-6,10,-7,-1,0.17,-0.17,-49.32,-10.19,9.28
-7,10,-10,-1.01,0.16,-0.15,-49.07,-8.79,9.64
-7,10,-12,-1.01,0.15,-0.14,-50.05,-7.75,9.89
-7,10,-13,-1,0.15,-0.14,-52,-6.23,9.89
-7,10,-14,-1,0.15,-0.14,-52,-6.23,9.89
-7,10,-16,-0.98,0.15,-0.16,-54.5,-4.09,9.83
-7,10,-17,-0.96,0.15,-0.19,-55.6,-2.75,9.83
-7,10,-18,-0.95,0.15,-0.21,-55.6,-2.01,10.13
-8,10,-18,-0.93,0.17,-0.23,-54.5,-2.32,10.44
-8,10,-19,-0.93,0.17,-0.23,-53.53,-3.11,10.99
-8,10,-19,-0.94,0.17,-0.25,-53.53,-3.11,10.99
-8,10,-19,-0.95,0.18,-0.25,-50.96,-4.52,11.78
-8,10,-19,-0.94,0.18,-0.24,-48.58,-5.62,12.39
-8,10,-20,-0.93,0.19,-0.23,-50.42,-7.45,11.84
-9,10,-20,-0.93,0.2,-0.22,-49.56,-11.6,12.08
-9,11,-21,-0.93,0.2,-0.22,-49.56,-11.6,12.08
-9,11,-22,-0.94,0.2,-0.21,-45.9,-14.53,12.7
-9,11,-22,-0.94,0.19,-0.18,-41.38,-14.59,13.31
-9,11,-22,-0.94,0.17,-0.17,-39.37,-13.12,13.43
-9,11,-23,-0.93,0.18,-0.16,-41.14,-11.9,12.63
-9,11,-23,-0.93,0.18,-0.16,-42.6,-11.84,11.35
-10,11,-23,-0.94,0.19,-0.15,-42.6,-11.84,11.35
-10,11,-23,-0.95,0.19,-0.15,-42.91,-10.74,10.56
-10,11,-23,-0.96,0.19,-0.15,-44.43,-8.91,9.4
-10,11,-23,-0.96,0.19,-0.16,-47.67,-7.75,7.81
-10,11,-24,-0.96,0.19,-0.18,-51.09,-8,6.23
-11,11,-24,-0.96,0.19,-0.18,-53.28,-8.48,5
-11,11,-25,-0.97,0.19,-0.2,-53.28,-8.48,5
-11,11,-25,-1,0.19,-0.23,-54.75,-9.52,3.6
-11,11,-26,-1.05,0.18,-0.26,-55.36,-10.99,2.62
-11,11,-26,-1.09,0.18,-0.28,-55.79,-12.08,1.4
-11,11,-26,-1.13,0.16,-0.3,-55.85,-13.61,-0.06
-11,11,-26,-1.13,0.16,-0.3,-54.02,-16.78,-1.28
-11,11,-26,-1.16,0.13,-0.29,-54.02,-16.78,-1.28
-11,11,-26,-1.18,0.1,-0.27,-51.45,-20.81,-2.44
-11,11,-26,-1.18,0.05,-0.24,-49.62,-24.9,-3.48
-11,11,-26,-1.17,0.01,-0.2,-47.24,-26.86,-4.09
-11,11,-26,-1.16,-0.03,-0.16,-46.75,-26.06,-4.88
-11,11,-26,-1.16,-0.03,-0.16,-48.34,-23.25,-5.92
-11,11,-26,-1.15,-0.06,-0.13,-48.34,-23.25,-5.92
-11,11,-26,-1.14,-0.09,-0.1,-51.7,-18.01,-7.14
-10,11,-26,-1.12,-0.09,-0.07,-54.87,-11.23,-7.75
-10,11,-26,-1.1,-0.1,-0.07,-57.56,-2.93,-7.93
-10,11,-26,-1.08,-0.1,-0.07,-59.14,6.65,-7.81
-10,11,-26,-1.06,-0.09,-0.06,-60,15.56,-7.39
-10,11,-26,-1.06,-0.09,-0.06,-60,15.56,-7.39
-10,11,-26,-1.03,-0.08,-0.06,-61.65,23.8,-7.63
-10,10,-26,-1.02,-0.09,-0.07,-63.05,30.09,-8.12
-9,10,-26,-0.99,-0.09,-0.08,-65.55,34.36,-8.48
-8,10,-26,-0.96,-0.07,-0.13,-69.64,37.41,-9.52
-4,10,-26,-0.91,-0.07,-0.18,-73.85,38.15,-10.56
