roll,pitch,yaw,ax,ay,az,gx,gy,gz
2,7,70,-1.02,-0.05,-0.12,-4.88,5.74,-1.83
2,7,70,-1.02,-0.05,-0.12,-7.14,3.66,-1.95
2,7,70,-1.03,-0.04,-0.13,-7.14,3.66,-1.95
2,7,70,-1.02,-0.04,-0.12,-8.36,4.82,-2.2
2,7,70,-1.02,-0.03,-0.13,-8.73,4.33,-2.32
2,7,70,-1.02,-0.03,-0.14,-9.28,3.85,-2.62
2,7,70,-1.02,-0.03,-0.14,-9.7,3.85,-2.99
2,7,70,-1.01,-0.03,-0.14,-9.7,3.85,-2.99
2,7,70,-1,-0.03,-0.14,-9.58,3.97,-2.99
2,7,70,-1,-0.03,-0.14,-9.95,3.85,-3.05
2,7,70,-1,-0.03,-0.14,-10.25,3.78,-3.17
2,7,70,-1,-0.03,-0.14,-10.44,3.85,-3.23
2,7,70,-1,-0.02,-0.13,-10.44,3.85,-3.23
2,7,70,-1,-0.02,-0.13,-10.86,3.72,-3.17
1,7,71,-1,-0.02,-0.13,-11.47,3.72,-3.3
1,7,71,-1,-0.02,-0.13,-12.08,3.36,-3.36
1,7,72,-1,-0.02,-0.13,-12.39,3.42,-3.42
1,7,72,-1,-0.02,-0.14,-12.39,3.42,-3.42
1,7,72,-1.01,-0.02,-0.13,-12.76,3.3,-3.48
1,7,73,-1.01,-0.02,-0.12,-13.18,3.3,-3.54
1,7,73,-1.02,-0.02,-0.12,-14.1,3.48,-3.72
1,7,73,-1.02,-0.02,-0.12,-15.32,3.42,-4.09
1,7,74,-1.01,-0.02,-0.13,-15.32,3.42,-4.09
1,7,75,-1.02,-0.02,-0.13,-15.93,3.42,-3.85
1,7,75,-1.02,-0.02,-0.13,-16.54,3.42,-3.78
1,7,76,-1.01,-0.02,-0.13,-17.7,3.17,-3.85
1,7,77,-1.01,-0.02,-0.13,-18.43,3.3,-4.09
1,7,77,-1.01,-0.02,-0.13,-18.43,3.3,-4.09
1,7,78,-1.01,-0.02,-0.12,-19.23,3.36,-3.91
1,7,78,-1.01,-0.03,-0.13,-20.32,3.3,-3.97
1,7,78,-1.01,-0.02,-0.13,-21.18,3.11,-3.6
1,7,78,-1.01,-0.02,-0.13,-22.03,2.93,-3.66
1,7,78,-1.01,-0.03,-0.13,-22.03,2.93,-3.66
1,7,79,-1.01,-0.02,-0.14,-22.64,2.81,-3.6
1,7,79,-1.01,-0.02,-0.14,-23.07,2.62,-3.36
1,7,79,-1.01,-0.02,-0.14,-23.62,2.56,-3.36
1,7,79,-1.01,-0.02,-0.13,-24.23,2.44,-3.36
1,7,79,-1.01,-0.02,-0.13,-24.23,2.44,-3.36
1,7,79,-1.01,-0.01,-0.13,-24.54,2.14,-3.23
1,7,79,-1.01,-0.01,-0.13,-24.72,1.65,-3.17
1,7,79,-1.01,-0.01,-0.13,-25.21,1.16,-3.17
1,7,79,-1,-0.01,-0.12,-25.82,0.79,-3.17
1,7,80,-1,-0.01,-0.12,-25.82,0.79,-3.17
1,7,80,-1,-0.01,-0.13,-26.61,0.43,-3.17
1,7,80,-1,-0.01,-0.12,-27.22,0.18,-3.23
1,7,80,-1,-0.01,-0.12,-27.47,-0.18,-3.11
1,7,80,-1.01,-0.02,-0.13,-28.14,-0.49,-3.17
1,7,80,-1.01,-0.02,-0.13,-28.14,-0.49,-3.17
1,7,80,-1.02,-0.02,-0.13,-28.5,-0.79,-3.11
1,7,80,-1.02,-0.03,-0.12,-28.93,-0.98,-3.17
1,7,80,-1.02,-0.03,-0.12,-29.36,-1.04,-3.23
1,7,80,-1.02,-0.03,-0.12,-29.54,-0.98,-3.23
1,7,80,-1.02,-0.03,-0.12,-29.66,-1.1,-3.11
1,7,80,-1.01,-0.04,-0.12,-29.66,-1.1,-3.11
1,7,80,-1.01,-0.04,-0.12,-29.97,-1.53,-3.17
1,7,80,-1.01,-0.05,-0.12,-30.21,-1.4,-3.17
1,7,80,-1.01,-0.05,-0.13,-30.03,-1.34,-3.17
1,7,80,-1.02,-0.05,-0.14,-29.54,-1.4,-3.17
1,7,80,-1.02,-0.05,-0.14,-29.54,-1.4,-3.17
1,7,80,-1.03,-0.06,-0.14,-28.69,-1.4,-3.17
2,7,80,-1.05,-0.06,-0.14,-27.4,-1.59,-3.11
2,7,80,-1.06,-0.05,-0.13,-26.18,-1.53,-3.11
2,7,79,-1.09,-0.05,-0.12,-24.84,-1.77,-2.99
2,7,79,-1.09,-0.05,-0.12,-23.25,-1.89,-2.93
2,7,78,-1.11,-0.05,-0.1,-23.25,-1.89,-2.93
2,7,78,-1.12,-0.06,-0.09,-22.4,-1.65,-2.93
3,7,78,-1.13,-0.07,-0.07,-22.34,-1.04,-2.93
3,7,78,-1.12,-0.07,-0.07,-23.99,0,-2.81
3,7,78,-1.11,-0.08,-0.07,-25.45,1.22,-2.69
3,7,78,-1.11,-0.08,-0.07,-25.45,1.22,-2.69
3,7,78,-1.11,-0.09,-0.07,-26,2.75,-2.38
3,7,78,-1.09,-0.1,-0.08,-26.49,4.15,-2.14
3,6,78,-1.08,-0.11,-0.09,-27.34,5.74,-1.83
3,6,77,-1.07,-0.11,-0.09,-28.2,7.2,-1.1
3,6,77,-1.07,-0.11,-0.09,-28.56,8.97,-0.43
3,6,77,-1.06,-0.11,-0.1,-28.56,8.97,-0.43
3,6,77,-1.05,-0.11,-0.1,-28.75,10.38,0.49
3,6,76,-1.05,-0.1,-0.11,-28.75,11.47,1.4
3,6,76,-1.04,-0.09,-0.11,-29.36,12.08,2.5
3,6,76,-1.04,-0.09,-0.11,-29.72,12.76,3.42
4,6,75,-1.04,-0.08,-0.11,-29.72,12.76,3.42
4,6,75,-1.03,-0.08,-0.12,-30.03,13.06,4.33
4,6,75,-1.02,-0.08,-0.12,-29.79,13.24,5.07
4,6,75,-1.01,-0.08,-0.13,-29.36,13.67,5.8
4,6,75,-1.01,-0.08,-0.13,-29.36,13.67,5.8
4,6,75,-1.01,-0.09,-0.13,-28.63,13.98,6.47
4,6,75,-1,-0.09,-0.13,-27.95,13.98,7.08
4,6,75,-1,-0.09,-0.13,-27.65,13.79,7.32
4,6,74,-1,-0.08,-0.12,-27.28,13.55,7.57
5,6,74,-1,-0.08,-0.12,-27.28,13.55,7.57
5,7,71,-0.99,-0.07,-0.12,-27.1,13.24,7.45
4,7,70,-0.99,-0.07,-0.12,-27.28,12.76,7.14
4,7,69,-0.98,-0.07,-0.12,-27.83,12.45,6.65
4,7,69,-0.98,-0.07,-0.12,-27.95,12.21,6.35
4,7,69,-0.98,-0.07,-0.12,-27.95,12.21,6.35
4,7,69,-0.98,-0.07,-0.11,-28.08,11.9,5.74
4,7,69,-0.98,-0.07,-0.11,-27.95,11.84,5.37
4,6,68,-0.98,-0.08,-0.11,-27.83,11.78,4.82
4,6,68,-0.98,-0.08,-0.1,-27.65,11.72,4.15
4,6,68,-0.98,-0.08,-0.1,-27.65,11.72,4.15
4,6,67,-0.98,-0.08,-0.1,-27.65,11.78,3.42
4,6,67,-0.98,-0.08,-0.09,-28.44,11.9,2.69
4,6,67,-0.98,-0.08,-0.09,-29.54,12.02,1.71
4,6,67,-0.98,-0.08,-0.09,-30.64,11.78,1.16
4,6,67,-0.98,-0.08,-0.09,-30.64,11.78,1.16
4,6,67,-0.98,-0.08,-0.1,-31.74,11.9,0.24
4,6,67,-0.99,-0.08,-0.11,-32.47,11.9,-0.37
4,6,66,-0.99,-0.08,-0.12,-32.96,11.84,-0.92
4,6,66,-0.99,-0.08,-0.12,-32.9,11.78,-1.22
5,6,65,-0.99,-0.09,-0.12,-32.9,11.78,-1.22
5,6,65,-0.99,-0.09,-0.13,-32.53,11.6,-1.59
5,6,64,-0.99,-0.09,-0.13,-31.62,11.29,-1.53
5,6,64,-0.99,-0.09,-0.12,-30.82,11.17,-1.71
5,6,63,-0.99,-0.09,-0.12,-30.03,10.74,-1.89
5,6,63,-0.99,-0.1,-0.12,-30.03,10.74,-1.89
5,6,62,-0.99,-0.1,-0.12,-29.6,10.56,-2.01
5,6,61,-0.99,-0.1,-0.12,-29.42,10.5,-2.08
5,6,61,-0.98,-0.11,-0.11,-29.66,10.44,-2.32
5,6,61,-0.98,-0.11,-0.11,-30.27,10.62,-2.26
5,6,60,-0.97,-0.11,-0.11,-30.27,10.62,-2.26
5,6,60,-0.97,-0.12,-0.12,-31.07,10.86,-2.44
5,7,60,-0.97,-0.12,-0.12,-31.98,11.29,-2.62
6,7,60,-0.97,-0.12,-0.12,-32.84,11.35,-2.69
6,7,60,-0.96,-0.12,-0.12,-33.45,11.72,-2.87
6,7,60,-0.96,-0.12,-0.12,-33.45,11.72,-2.87
6,7,59,-0.96,-0.12,-0.12,-34.18,11.9,-2.87
6,7,58,-0.96,-0.12,-0.12,-34.48,11.78,-2.93
6,7,56,-0.96,-0.11,-0.12,-34.79,11.72,-3.05
6,7,55,-0.95,-0.11,-0.12,-35.34,11.54,-3.17
6,7,54,-0.95,-0.11,-0.12,-35.34,11.54,-3.17
7,7,54,-0.95,-0.11,-0.13,-35.71,10.93,-3.23
7,7,54,-0.95,-0.11,-0.13,-36.19,10.56,-3.3
6,7,53,-0.94,-0.11,-0.13,-36.44,10.13,-3.54
6,7,53,-0.94,-0.11,-0.13,-36.5,9.4,-3.48
6,7,53,-0.94,-0.1,-0.12,-36.5,9.4,-3.48
6,7,53,-0.94,-0.1,-0.12,-36.87,8.48,-3.91
6,7,53,-0.93,-0.1,-0.12,-37.41,7.69,-4.33
6,7,52,-0.93,-0.1,-0.12,-38.02,7.2,-4.64
6,7,52,-0.93,-0.09,-0.12,-38.39,5.98,-4.94
6,7,52,-0.93,-0.09,-0.12,-38.39,5.98,-4.94
6,7,52,-0.94,-0.08,-0.12,-38.7,4.82,-5.37
6,7,52,-0.95,-0.08,-0.13,-38.82,3.72,-5.37
6,7,52,-0.98,-0.07,-0.13,-39.06,2.26,-5.25
6,7,52,-1.01,-0.06,-0.15,-39.37,0.37,-4.94
6,7,52,-1.01,-0.06,-0.15,-39.37,0.37,-4.94
6,7,53,-1.06,-0.04,-0.17,-40.04,-2.14,-4.39
6,8,53,-1.13,-0.01,-0.19,-39.25,-4.94,-3.54
6,8,53,-1.21,0.02,-0.2,-36.56,-8.73,-3.11
6,8,53,-1.26,0.05,-0.22,-32.41,-9.77,-2.26
6,8,53,-1.26,0.05,-0.22,-32.41,-9.77,-2.26
6,8,53,-1.24,0.08,-0.18,-26.79,-7.26,-1.53
6,8,53,-1.22,0.1,-0.13,-19.47,-14.28,-0.73
5,8,53,-1.27,0.1,-0.11,-14.16,-24.9,-0.43
5,8,53,-1.27,0.09,-0.1,-11.78,-29.66,-1.16
5,8,53,-1.27,0.09,-0.1,-11.78,-29.66,-1.16
5,8,52,-1.24,0.06,-0.08,-9.89,-29.72,-2.26
5,8,52,-1.22,0.01,-0.07,-8,-33.2,-2.93
5,8,52,-1.22,0,-0.06,-9.52,-37.48,-3.42
5,8,52,-1.18,0.01,-0.02,-12.63,-38.76,-3.66
5,7,52,-1.18,0.01,-0.02,-12.63,-38.76,-3.66
5,7,52,-1.13,0.01,0.02,-13.55,-38.33,-3.54
5,7,52,-1.09,0.02,0.05,-14.1,-38.27,-3.3
4,7,52,-1.06,0.03,0.07,-16.24,-37.66,-3.11
4,7,52,-1.03,0.04,0.07,-18.68,-36.74,-2.99
4,7,52,-1.03,0.04,0.07,-18.68,-36.74,-2.99
3,7,52,-1.05,0.04,0.06,-19.96,-38.09,-2.81
3,7,52,-1.08,0.05,0.04,-20.75,-36.5,-2.26
3,7,52,-1.08,0.07,0.03,-19.17,-31.74,-1.71
2,7,52,-1.08,0.07,0.03,-15.93,-28.99,-0.67
2,6,52,-1.06,0.06,0.04,-15.93,-28.99,-0.67
2,6,52,-1.06,0.06,0.07,-12.57,-30.15,0.61
1,5,52,-1.08,0.09,0.07,-12.33,-31.74,1.83
1,4,52,-1.09,0.12,0.06,-13.73,-32.04,1.95
1,3,52,-1.09,0.12,0.06,-13.73,-32.04,1.95
1,3,52,-1.1,0.12,0.04,-14.89,-31.74,2.38
1,2,52,-1.07,0.13,0.01,-14.65,-30.64,2.5
0,2,52,-1.04,0.14,-0.01,-13.67,-30.52,1.89
0,2,52,-1.04,0.14,-0.01,-16.42,-32.04,0.43
0,2,52,-1.01,0.17,-0.05,-16.42,-32.04,0.43
0,2,52,-1.01,0.2,-0.13,-21.12,-35.52,-1.71
0,2,52,-1.07,0.19,-0.13,-23.07,-39.55,-3.05
0,2,52,-1.12,0.16,-0.08,-20.2,-37.05,-3.6
-1,2,52,-1.12,0.16,-0.08,-15.87,-26.18,-4.58
-1,2,52,-1.11,0.14,0.01,-15.87,-26.18,-4.58
-1,2,52,-1.06,0.12,0.09,-13.55,-12.57,-5.86
-1,2,52,-1.04,0.06,0.13,-11.54,-1.28,-6.04
-1,2,52,-1.02,0.03,0.12,-10.74,10.62,-6.16
-1,2,52,-1.02,0.03,0.12,-14.59,21.91,-5.92
-1,2,52,-1.05,0.03,0.03,-14.59,21.91,-5.92
-1,2,52,-0.99,0.03,0,-18.92,35.52,-6.04
-1,2,52,-0.95,0.01,-0.03,-21.97,42.66,-5.86
-1,2,52,-0.91,0.01,-0.06,-24.11,45.1,-5.31
-1,2,52,-0.91,0.01,-0.06,-24.11,45.1,-5.31
-1,2,52,-0.91,0.01,-0.09,-26.79,45.72,-4.39
-1,2,52,-0.91,0.02,-0.12,-29.11,46.14,-3.48
-1,2,52,-0.89,0,-0.12,-28.81,46.81,-2.93
-1,2,52,-0.87,-0.01,-0.12,-27.22,45.96,-1.4
-1,2,52,-0.87,-0.01,-0.12,-27.22,45.96,-1.4
-1,2,52,-0.87,0,-0.15,-29.6,42.11,0.49
-1,2,52,-0.87,0.01,-0.16,-32.17,37.66,1.89
-1,2,52,-0.86,0.02,-0.15,-31.56,34.61,3.66
-1,2,52,-0.89,0.04,-0.15,-30.21,32.47,5.19
-1,2,52,-0.89,0.04,-0.15,-30.21,32.47,5.19
-1,3,52,-0.87,0.07,-0.15,-29.05,33.02,7.14
-1,3,52,-0.87,0.08,-0.14,-25.39,31.92,8.36
-1,4,52,-0.9,0.07,-0.13,-20.57,30.03,9.7
-1,4,52,-0.93,0.06,-0.11,-16.72,29.97,10.86
-1,4,52,-0.93,0.06,-0.11,-16.72,29.97,10.86
-1,4,52,-0.93,0.05,-0.1,-13.79,32.35,12.15
-1,4,51,-0.94,0.07,-0.07,-11.29,33.87,13.24
-1,4,51,-0.94,0.07,-0.05,-9.7,33.45,13.98
-1,4,51,-0.94,0.07,-0.05,-11.41,31.8,13.79
-2,4,51,-0.94,0.07,-0.05,-11.41,31.8,13.79
-3,4,51,-0.95,0.08,-0.06,-15.08,28.99,13.49
-3,4,51,-0.96,0.1,-0.09,-17.88,26.92,13
-3,4,50,-0.96,0.11,-0.09,-18.86,26.43,12.88
-3,4,50,-0.96,0.11,-0.09,-18.49,25.27,12.57
-3,4,50,-0.96,0.11,-0.1,-18.49,25.27,12.57
-3,4,49,-0.96,0.11,-0.11,-18.19,23.19,12.15
-3,5,48,-0.96,0.11,-0.13,-18.68,20.87,11.66
-4,5,47,-0.95,0.11,-0.15,-18.74,18.31,11.11
-4,5,46,-0.95,0.11,-0.15,-17.58,16.11,10.8
-4,5,46,-0.95,0.11,-0.16,-17.58,16.11,10.8
-4,5,45,-0.95,0.12,-0.16,-14.83,13.79,10.86
-5,5,44,-0.95,0.12,-0.16,-11.9,11.84,10.86
-5,5,44,-0.96,0.11,-0.14,-8.91,9.7,10.99
-6,5,43,-0.96,0.11,-0.14,-7.26,7.75,10.93
-6,5,41,-0.96,0.11,-0.12,-7.26,7.75,10.93
-6,5,39,-0.97,0.11,-0.1,-6.1,6.29,10.93
-6,5,38,-0.99,0.11,-0.08,-5.13,5.19,10.74
-6,5,37,-1,0.1,-0.06,-5.13,4.03,10.74
-6,5,37,-1,0.1,-0.06,-5.55,2.81,10.93
-6,5,37,-1.02,0.1,-0.05,-5.55,2.81,10.93
-6,5,37,-1.05,0.1,-0.04,-6.23,1.28,11.11
-6,5,37,-1.07,0.1,-0.03,-6.71,-0.06,11.29
-6,5,37,-1.1,0.09,-0.03,-6.59,-1.22,11.41
-6,5,37,-1.1,0.09,-0.03,-5.86,-2.56,11.66
-6,5,36,-1.15,0.09,-0.04,-5.86,-2.56,11.66
-6,5,36,-1.22,0.08,-0.06,-4.27,-3.66,12.15
-6,5,36,-1.3,0.06,-0.08,-0.18,-3.97,12.27
-6,5,36,-1.4,0.02,-0.1,5.37,-3.48,12.08
-5,4,35,-1.4,0.02,-0.1,10.31,-3.78,11.72
-5,4,35,-1.48,-0.01,-0.1,10.31,-3.78,11.72
-5,4,35,-1.51,-0.05,-0.09,14.34,-5.43,10.93
-5,4,35,-1.49,-0.09,-0.04,16.91,-8.73,9.95
-5,4,35,-1.42,-0.12,0.01,17.09,-12.63,9.09
-5,4,35,-1.42,-0.12,0.01,15.01,-14.83,8.06
-5,4,35,-1.28,-0.12,0.09,15.01,-14.83,8.06
-5,4,35,-1.16,-0.13,0.12,11.84,-17.52,7.2
-5,4,35,-1.05,-0.13,0.14,8.91,-21.24,6.59
-5,4,35,-0.93,-0.13,0.15,5.62,-24.23,5.8
-5,4,35,-0.93,-0.13,0.15,2.14,-27.34,5.25
-5,3,35,-0.83,-0.12,0.18,2.14,-27.34,5.25
-5,3,35,-0.83,-0.1,0.17,-1.53,-35.22,5.43
-4,3,35,-0.86,-0.1,0.14,-4.39,-39.86,5.43
-4,3,35,-0.91,-0.09,0.1,-5.62,-37.96,4.82
-3,3,35,-0.91,-0.09,0.1,-5.62,-32.9,4.09
-3,3,35,-0.96,-0.1,0.07,-5.62,-32.9,4.09
-2,3,34,-0.99,-0.1,0.07,-3.97,-26.92,3.36
-1,3,34,-1.03,-0.09,0.08,-1.53,-24.17,2.93
-1,3,33,-1.07,-0.08,0.09,0.12,-24.05,2.62
-1,3,33,-1.07,-0.08,0.1,1.28,-23.93,1.95
-1,3,32,-1.07,-0.08,0.1,1.28,-23.93,1.95
0,3,31,-1.08,-0.1,0.1,1.4,-25.82,1.28
0,2,31,-1.09,-0.12,0.04,1.22,-30.64,1.16
1,2,31,-1.1,-0.13,-0.01,1.53,-34.48,1.22
1,2,30,-1.1,-0.13,-0.01,-0.06,-38.15,1.4
2,2,30,-1.07,-0.12,-0.03,-0.06,-38.15,1.4
2,2,30,-1.05,-0.12,-0.04,-3.48,-41.44,1.46
2,2,30,-1.03,-0.13,-0.03,-4.46,-44.49,2.01
2,2,30,-1.02,-0.15,0,-3.36,-46.26,3.36
3,2,30,-1.02,-0.15,0,-2.75,-45.29,4.94
3,2,30,-1.01,-0.16,0.03,-2.75,-45.29,4.94
3,2,30,-1,-0.16,0.06,-2.87,-42.72,6.16
3,2,30,-0.99,-0.15,0.07,-2.62,-37.66,7.69
3,1,30,-0.98,-0.15,0.09,-0.92,-30.64,8.85
4,1,30,-0.98,-0.15,0.09,1.16,-22.03,9.64
4,1,30,-0.96,-0.16,0.1,1.16,-22.03,9.64
4,1,30,-0.87,-0.17,0.08,1.46,-11.84,10.13
5,1,30,-0.94,-0.12,0.07,0.37,-2.44,10.07
5,1,30,-0.9,-0.11,0.05,-1.77,5.98,8.97
5,1,29,-0.9,-0.11,0.05,-5.74,12.51,7.2
6,1,29,-0.92,-0.17,0.04,-5.74,12.51,7.2
6,0,29,-0.91,-0.16,-0.01,-10.56,20.14,5.8
6,0,29,-0.9,-0.12,-0.09,-17.88,25.82,4.39
6,0,29,-0.9,-0.1,-0.13,-18.98,27.28,2.2
6,1,29,-0.9,-0.1,-0.13,-18.98,27.28,2.2
6,1,29,-0.89,-0.1,-0.15,-18.31,28.26,-0.43
6,1,29,-0.9,-0.09,-0.16,-16.85,29.05,-2.87
6,1,29,-0.89,-0.08,-0.14,-13.55,31.13,-5.07
6,1,29,-0.89,-0.1,-0.13,-11.54,33.39,-8
6,1,29,-0.89,-0.1,-0.13,-11.54,33.39,-8
6,1,29,-0.89,-0.1,-0.13,-11.05,34.73,-10.38
6,1,29,-0.88,-0.11,-0.14,-10.25,36.62,-12.63
6,1,29,-0.87,-0.12,-0.17,-10.19,37.6,-14.59
6,2,29,-0.87,-0.13,-0.19,-11.6,38.15,-16.36
6,3,31,-0.87,-0.13,-0.19,-11.6,38.15,-16.36
7,3,33,-0.86,-0.13,-0.21,-12.57,38.09,-18.01
7,4,35,-0.87,-0.15,-0.22,-13.67,36.56,-19.65
7,4,38,-0.89,-0.16,-0.23,-16.72,35.03,-21.24
7,4,40,-0.9,-0.16,-0.23,-19.59,32.84,-22.64
7,4,42,-0.9,-0.16,-0.23,-21.24,30.33,-23.62
7,4,43,-0.91,-0.16,-0.21,-21.24,30.33,-23.62
7,5,44,-0.93,-0.15,-0.18,-21.85,27.89,-24.48
7,5,44,-0.94,-0.16,-0.15,-21.79,25.33,-24.84
8,5,44,-0.97,-0.17,-0.12,-23.25,23.38,-25.21
8,5,44,-0.97,-0.17,-0.12,-25.63,25.02,-25.51
8,5,44,-0.98,-0.2,-0.09,-25.63,25.02,-25.51
9,5,44,-0.96,-0.2,-0.05,-28.14,30.46,-25.39
9,5,44,-0.97,-0.21,-0.04,-30.03,29.42,-24.72
9,5,44,-1,-0.22,-0.04,-33.26,26.67,-23.56
9,5,44,-1,-0.22,-0.04,-36.5,27.16,-22.16
9,5,44,-1.03,-0.22,-0.02,-36.5,27.16,-22.16
9,5,44,-1.04,-0.21,0,-39.06,29.72,-20.2
9,5,44,-1.06,-0.2,0.01,-40.71,30.64,-17.88
10,5,44,-1.06,-0.19,0.02,-41.44,30.03,-15.26
10,5,44,-1.06,-0.19,0.02,-43.15,29.11,-13
10,5,44,-1.07,-0.18,0.02,-43.15,29.11,-13
10,4,44,-1.07,-0.16,-0.05,-47.91,26.79,-11.05
10,4,44,-1.07,-0.12,-0.1,-48.83,23.38,-9.22
10,4,44,-1.09,-0.08,-0.16,-45.04,20.94,-7.57
9,4,44,-1.09,-0.08,-0.16,-39.49,16.17,-5.43
9,4,44,-1.15,-0.03,-0.24,-39.49,16.17,-5.43
9,4,44,-1.25,0.01,-0.3,-31.07,9.89,-3.3
9,4,44,-1.33,0.03,-0.29,-20.81,2.56,-1.22
9,5,44,-1.42,0.04,-0.27,-11.47,-5.07,0.98
9,5,44,-1.4,0.05,-0.19,-4.58,-8.24,3.36
9,5,44,-1.4,0.05,-0.19,-4.58,-8.24,3.36
9,5,44,-1.37,0.11,-0.09,0.92,-16.11,5.31
9,5,44,-1.38,0.18,-0.01,5.31,-26,5.62
9,5,44,-1.28,0.13,0.13,8.67,-29.97,3.72
9,5,44,-1.28,0.13,0.13,8.67,-29.97,3.72
9,4,44,-1.23,0.09,0.24,6.47,-35.95,1.28
9,4,44,-1.2,0.05,0.22,0.49,-42.11,-0.49
8,4,44,-1.17,0.03,0.16,-6.77,-40.89,-1.77
8,4,44,-1.1,0.03,0.09,-9.89,-34.36,-2.69
8,4,44,-1.1,0.03,0.09,-9.89,-34.36,-2.69
8,4,44,-1.05,0.03,0.07,-9.03,-28.32,-3.17
8,4,44,-1.02,-0.01,0.07,-8.3,-25.63,-3.3
7,4,44,-1.02,0.02,0.1,-10.44,-23.99,-2.75
7,4,44,-1.02,0.02,0.1,-13.61,-23.99,-2.01
7,3,44,-1.02,0.08,0.14,-13.61,-23.99,-2.01
6,3,44,-1.04,0.12,0.16,-18.19,-24.6,-1.89
6,2,44,-1.07,0.13,0.19,-20.2,-22.34,-1.46
6,2,44,-1.1,0.18,0.2,-20.2,-18.98,-0.06
6,2,44,-1.1,0.18,0.2,-22.09,-16.6,0.49
6,2,44,-1.13,0.24,0.15,-22.09,-16.6,0.49
6,1,44,-1.14,0.25,0.09,-22.16,-15.38,0.73
6,1,44,-1.14,0.23,0.07,-17.27,-13.67,1.34
5,1,44,-1.13,0.18,0.05,-11.54,-11.54,1.95
5,1,44,-1.13,0.18,0.05,-11.54,-11.54,1.95
5,1,43,-1.11,0.15,0.03,-8.12,-9.52,2.44
5,1,43,-1.09,0.13,-0.01,-8.36,-8.61,2.5
4,1,43,-1.02,0.15,-0.03,-11.11,-9.58,1.77
4,1,43,-0.97,0.16,-0.08,-14.53,-14.34,-0.55
3,1,43,-0.97,0.16,-0.08,-14.53,-14.34,-0.55
2,1,43,-0.92,0.14,-0.14,-16.66,-22.83,-3.23
2,1,43,-0.96,0.1,-0.16,-19.53,-29.85,-4.88
2,1,43,-1.04,0.06,-0.09,-20.57,-31.8,-5.37
1,1,43,-1.02,0.02,0.07,-19.84,-20.63,-6.04
1,1,43,-1.02,0.02,0.07,-19.84,-20.63,-6.04
1,1,43,-1,0.06,0.14,-21.73,-1.71,-6.35
1,1,43,-0.92,0.05,0.14,-18.37,18.62,-6.04
1,1,43,-0.85,0,0.11,-12.02,34.36,-6.35
1,1,43,-0.85,0,0.11,-11.78,42.6,-6.04
1,1,43,-0.82,-0.04,0.04,-11.78,42.6,-6.04
1,1,43,-0.79,-0.02,0,-16.48,46.94,-5.55
1,1,43,-0.78,0,-0.02,-20.69,48.65,-5.19
1,1,43,-0.76,0.03,-0.05,-24.17,50.35,-5.55
1,1,43,-0.76,0.03,-0.05,-24.17,50.35,-5.55
1,1,43,-0.74,0.04,-0.05,-28.2,52.25,-6.1
1,1,43,-0.73,0.03,-0.05,-28.63,53.77,-5.92
1,1,43,-0.73,0.04,-0.05,-28.02,53.83,-4.58
0,1,43,-0.74,0.04,-0.05,-27.83,51.51,-3.36
0,1,43,-0.74,0.04,-0.05,-27.83,51.51,-3.36
0,1,43,-0.76,0.05,-0.03,-25.76,48.4,-2.56
0,1,43,-0.79,0.06,-0.03,-24.11,45.29,-1.22
0,1,43,-0.8,0.07,-0.03,-23.99,41.99,0.06
-1,2,42,-0.8,0.07,-0.03,-24.11,38.02,1.65
-1,2,42,-0.81,0.09,-0.05,-24.11,38.02,1.65
-1,2,42,-0.82,0.11,-0.06,-23.25,34.85,3.36
-1,2,42,-0.82,0.13,-0.06,-21.36,32.47,5.49
-1,2,42,-0.82,0.14,-0.06,-18.07,30.03,7.69
-1,3,41,-0.82,0.14,-0.06,-13.73,27.28,10.38
-2,3,41,-0.83,0.14,-0.04,-13.73,27.28,10.38
-2,3,40,-0.84,0.13,-0.02,-9.52,25.15,12.76
-2,3,40,-0.86,0.14,0,-6.23,23.93,15.44
-2,3,40,-0.89,0.14,0,-4.46,23.62,17.58
-2,2,39,-0.89,0.14,0,-4.46,23.62,17.58
-3,2,39,-0.94,0.14,-0.03,-3.6,23.93,19.41
-4,2,39,-0.96,0.13,-0.05,-2.38,27.16,21.3
-5,2,39,-0.99,0.14,-0.08,-1.4,28.14,23.13
-6,2,39,-1.02,0.14,-0.09,-1.77,26.31,24.6
-6,3,38,-1.02,0.14,-0.09,-1.77,26.31,24.6
-6,3,38,-1.06,0.14,-0.09,-3.05,23.74,25.7
-6,3,38,-1.1,0.15,-0.08,-3.66,21.3,26.31
-6,3,38,-1.12,0.15,-0.05,-3.23,18.8,26.18
-6,3,38,-1.14,0.14,-0.01,-2.56,15.81,25.88
-6,3,38,-1.14,0.14,-0.01,-2.56,15.81,25.88
-6,2,38,-1.15,0.12,0.03,-2.87,12.76,25.33
-6,2,38,-1.14,0.1,0.05,-4.58,10.74,24.41
-6,2,37,-1.1,0.09,0.07,-7.63,9.46,23.62
-6,2,37,-1.1,0.09,0.07,-10.31,8,22.95
-6,2,37,-1.06,0.1,0.08,-10.31,8,22.95
-6,2,37,-1.03,0.13,0.08,-11.9,6.53,22.34
-6,2,37,-1.07,0.15,0.06,-11.23,4.15,21.91
-6,2,37,-1.19,0.17,0.02,-7.69,0.24,21.73
-6,2,37,-1.19,0.17,0.02,-7.69,0.24,21.73
-6,2,37,-1.39,0.17,-0.01,-1.16,-4.03,21.48
-6,2,37,-1.6,0.08,0.01,9.89,-8.67,20.14
-6,2,37,-1.62,-0.09,0.14,22.22,-7.87,17.21
-6,1,37,-1.54,-0.25,0.31,26.92,-5.74,13.85
-6,1,37,-1.54,-0.25,0.31,26.92,-5.74,13.85
-6,1,37,-1.45,-0.31,0.4,23.13,-10.86,10.31
-6,1,37,-1.27,-0.28,0.44,15.5,-14.47,6.71
-6,1,37,-1.11,-0.23,0.43,6.53,-18.43,3.42
-6,1,37,-1.11,-0.23,0.43,1.34,-29.05,0.73
-6,1,37,-1.07,-0.23,0.37,1.34,-29.05,0.73
-6,1,37,-1.17,-0.23,0.32,1.1,-43.33,-1.4
-6,1,37,-1.28,-0.21,0.34,1.22,-47.55,-3.23
-6,1,36,-1.31,-0.19,0.4,0.18,-41.5,-4.88
-6,1,34,-1.31,-0.19,0.4,-1.83,-34.91,-7.32
-5,1,31,-1.28,-0.19,0.43,-1.83,-34.91,-7.32
-5,0,28,-1.26,-0.16,0.36,-8.36,-33.02,-8.79
-5,-1,26,-1.2,-0.09,0.25,-12.94,-30.03,-9.4
-4,-1,24,-1.11,-0.05,0.15,-12.21,-28.26,-10.44
-4,-1,22,-1.04,-0.02,0.04,-9.77,-29.72,-10.56
-4,-1,20,-1.04,-0.02,0.04,-5.8,-32.65,-10.13
-4,-1,20,-0.98,-0.01,-0.01,-5.8,-32.65,-10.13
-4,-1,20,-0.92,-0.01,-0.04,-0.67,-35.64,-9.64
-4,-1,20,-0.9,-0.01,-0.04,2.81,-40.89,-8.91
-4,-1,20,-0.82,-0.01,-0.01,5.07,-46.57,-7.87
-4,-1,20,-0.73,-0.13,-0.04,1.71,-59.94,-7.81
-4,-1,20,-0.73,-0.13,-0.04,-10.56,-81.36,-6.23
-4,-1,20,-0.72,-0.24,-0.2,-10.56,-81.36,-6.23
-4,-1,20,-0.95,-0.22,-0.14,-26.67,-109.86,-3.91
-4,-1,20,-1.25,-0.15,0.27,-29.85,-107.24,0.06
-4,-1,20,-1.05,-0.05,0.45,-17.03,-52.25,2.56
-4,-1,20,-0.86,-0.09,0.37,-2.75,-9.52,2.32
-4,-1,20,-0.8,-0.17,0.18,-3.36,-0.12,1.77
-4,-1,20,-0.8,-0.17,0.18,-3.36,-0.12,1.77
-3,-1,20,-0.75,-0.17,0.04,-9.46,12.33,1.46
-3,-1,20,-0.67,-0.18,-0.05,-11.35,22.58,2.08
-3,-1,20,-0.68,-0.15,-0.02,-8,29.24,3.42
-3,-1,20,-0.67,-0.12,-0.02,-8.48,32.53,3.3
-3,-1,20,-0.69,-0.19,0.01,-9.52,32.53,2.69
-2,-1,20,-0.69,-0.19,0.01,-9.52,32.53,2.69
-2,-1,20,-0.69,-0.18,0,-8.79,38.45,2.5
-2,-1,20,-0.69,-0.13,-0.03,-12.39,46.2,2.69
-1,-1,20,-0.69,-0.09,-0.04,-14.59,48.03,0.61
-1,-1,20,-0.74,-0.04,-0.09,-17.03,44.25,-1.89
-1,-1,20,-0.74,-0.04,-0.09,-17.03,44.25,-1.89
-1,0,20,-0.75,0,-0.12,-16.66,43.76,-3.85
-1,0,20,-0.74,0,-0.12,-12.88,44.43,-5.68
-1,0,20,-0.77,-0.01,-0.11,-7.51,37.84,-7.57
-1,0,20,-0.82,-0.03,-0.08,-7.26,29.17,-9.89
-1,0,20,-0.84,-0.06,-0.07,-10.19,26.18,-12.21
-1,0,20,-0.84,-0.06,-0.07,-10.19,26.18,-12.21
-1,0,20,-0.84,-0.07,-0.05,-13.73,27.04,-14.53
-1,0,20,-0.86,-0.11,-0.04,-15.93,24.05,-16.05
-1,0,20,-0.89,-0.14,-0.04,-18.19,21.48,-17.33
0,0,20,-0.92,-0.16,-0.04,-22.09,21.42,-18.92
0,1,20,-0.92,-0.16,-0.04,-22.09,21.42,-18.92
0,1,20,-0.93,-0.17,-0.05,-26,21.97,-20.26
0,1,20,-0.95,-0.17,-0.05,-28.5,21.85,-21.12
0,1,20,-0.97,-0.15,-0.04,-29.85,20.94,-21.79
0,1,20,-0.99,-0.13,-0.04,-30.52,18.98,-22.03
0,1,20,-0.99,-0.13,-0.04,-29.36,16.6,-21.97
1,2,20,-1.03,-0.1,-0.04,-29.36,16.6,-21.97
1,2,20,-1.08,-0.07,-0.04,-27.22,14.71,-22.09
1,2,20,-1.12,-0.05,-0.04,-24.29,12.45,-21.67
1,2,21,-1.15,-0.04,-0.02,-20.45,9.89,-20.57
1,2,21,-1.15,-0.04,-0.02,-17.27,8.36,-18.98
1,2,21,-1.15,0,0.01,-17.27,8.36,-18.98
1,2,21,-1.12,0.04,0.03,-13.55,6.96,-17.09
1,2,21,-1.09,0.06,0.03,-8.67,3.85,-14.83
1,2,20,-1.08,0.03,0,-3.48,0,-12.27
1,2,20,-1.08,0.03,0,-3.48,0,-12.27
1,1,20,-1.1,-0.04,-0.03,0.98,-3.36,-9.46
1,1,20,-1.17,-0.09,-0.04,2.69,-6.23,-6.41
1,1,20,-1.29,-0.07,-0.04,0.06,-10.38,-3.72
1,1,20,-1.41,-0.02,0,-2.2,-12.88,-1.34
1,1,20,-1.41,-0.02,0,0.12,-12.76,1.22
1,1,21,-1.45,0.01,0.13,0.12,-12.76,1.22
1,1,21,-1.45,0.03,0.28,1.77,-12.82,3.78
1,1,21,-1.43,0.03,0.39,-1.83,-16.11,6.23
1,1,21,-1.41,0.09,0.4,-8.48,-20.81,8.18
1,1,21,-1.41,0.09,0.4,-8.48,-20.81,8.18
1,1,21,-1.35,0.12,0.35,-14.53,-23.68,8.54
1,1,21,-1.26,0.18,0.25,-17.21,-24.11,8.24
0,1,21,-1.2,0.16,0.17,-17.64,-27.16,8.61
0,1,21,-1.2,0.16,0.17,-17.64,-27.16,8.61
0,1,21,-1.18,0.18,0.09,-16.3,-30.33,9.83
0,1,21,-1.21,0.21,0.04,-13,-33.87,11.9
0,1,21,-1.25,0.23,0.06,-6.96,-38.27,13.43
0,1,21,-1.32,0.26,0.09,-2.44,-45.47,13.67
0,1,21,-1.32,0.26,0.09,-2.44,-45.47,13.67
-1,1,21,-1.37,0.29,0.15,-0.67,-50.6,13.37
-1,1,21,-1.35,0.21,0.23,-0.12,-52.8,13.43
-1,1,21,-1.32,0.19,0.26,2.26,-54.32,15.38
-2,1,21,-1.32,0.19,0.26,7.26,-58.96,16.17
-2,1,21,-1.31,0.21,0.26,7.26,-58.96,16.17
-3,1,21,-1.24,0.24,0.25,12.02,-60.42,14.47
-4,0,21,-1.12,0.25,0.16,8.48,-58.72,10.31
-4,0,21,-0.96,0.26,0.01,0.24,-60.79,4.7
-5,0,21,-0.96,0.26,0.01,0.24,-60.79,4.7
-5,0,21,-0.89,0.22,-0.2,-8.24,-75.56,-2.32
-5,0,21,-1.21,0.14,-0.22,-17.76,-105.83,-5.62
-5,0,21,-1.43,0.01,0.18,-8.54,-102.6,-3.91
-5,0,21,-1.14,-0.04,0.44,3.91,-41.63,-2.26
-5,0,21,-1.14,-0.04,0.44,3.91,-41.63,-2.26
-5,0,21,-0.95,-0.07,0.34,7.14,4.94,-2.62
-5,0,21,-0.84,-0.06,0.1,-3.72,14.47,-3.3
-5,0,21,-0.76,-0.04,-0.03,-13.24,24.05,-3.3
-5,0,21,-0.74,-0.08,-0.03,-10.62,32.29,-2.87
-5,0,21,-0.74,-0.08,-0.03,-12.63,40.22,-2.38
-5,0,21,-0.7,-0.04,-0.03,-12.63,40.22,-2.38
-5,0,21,-0.67,-0.01,-0.02,-9.03,52.73,-0.67
-5,0,21,-0.6,-0.01,0.04,0.37,66.83,-0.24
-4,0,21,-0.54,-0.02,0.06,3.48,75.26,-0.18
-4,0,21,-0.54,-0.02,0.06,2.44,76.9,0
-4,0,21,-0.56,0,0.05,2.44,76.9,0
-4,0,21,-0.56,0,0.05,1.89,77.7,-0.79
-4,0,21,-0.57,0,0.02,0.43,79.28,-1.4
-4,0,21,-0.56,0.03,-0.02,-2.62,79.16,-1.4
-4,0,21,-0.56,0.03,-0.02,-2.62,79.16,-1.4
-3,0,21,-0.59,0.05,-0.07,-5,73,-1.4
-4,0,21,-0.63,0.06,-0.1,-6.59,64.94,-0.98
-4,0,21,-0.67,0.1,-0.11,-4.94,61.16,0
-4,0,20,-0.71,0.13,-0.1,-2.38,57.37,0.85
-4,0,20,-0.71,0.13,-0.1,1.04,54.38,1.83
-4,0,20,-0.73,0.14,-0.09,1.04,54.38,1.83
-4,0,19,-0.75,0.15,-0.08,7.2,49.5,3.17
-4,0,19,-0.77,0.13,-0.08,13.37,40.47,4.76
-4,1,18,-0.79,0.1,-0.07,19.47,30.27,6.53
-4,1,18,-0.79,0.1,-0.07,19.47,30.27,6.53
-4,1,18,-0.84,0.09,-0.06,23.74,21.85,8.48
-4,1,17,-0.86,0.1,-0.05,26.73,17.03,10.74
-4,1,17,-0.89,0.09,-0.05,29.24,14.47,12.76
-4,1,15,-0.89,0.09,-0.05,31.8,12.45,14.53
-4,1,11,-0.91,0.07,-0.03,31.8,12.45,14.53
-4,1,9,-0.93,0.07,-0.02,32.53,10.74,16.11
-4,1,8,-0.96,0.06,-0.01,31.8,7.32,17.52
-4,1,8,-1.01,0.05,-0.01,29.42,3.85,19.04
-4,1,8,-1.01,0.05,-0.01,29.42,3.85,19.04
-4,1,8,-1.08,0.07,-0.01,26.31,1.83,20.51
-4,1,8,-1.13,0.07,-0.01,23.99,1.04,21.42
-4,1,8,-1.18,0.05,-0.03,21.91,2.08,22.03
-4,1,8,-1.18,0.05,-0.03,19.78,4.94,22.34
-4,1,7,-1.21,0.05,-0.01,19.78,4.94,22.34
-3,1,7,-1.24,0.03,0.01,17.82,1.77,22.4
-3,1,7,-1.27,0.02,0.02,13.61,-3.6,21.79
-3,0,7,-1.28,0.02,0.03,9.09,-6.23,20.75
-3,0,7,-1.28,0.02,0.03,9.09,-6.23,20.75
-3,0,7,-1.29,0.04,0.05,4.94,-6.71,19.35
-3,0,7,-1.36,0.07,0.05,1.22,-7.57,17.82
-3,0,7,-1.47,0.06,0.02,-1.1,-8.97,15.56
-3,0,7,-1.47,0.06,0.02,-1.1,-8.97,15.56
-2,0,7,-1.59,0,0.02,-0.55,-11.23,12.33
-2,0,7,-1.64,-0.1,0.06,1.71,-13.55,8.24
-2,0,7,-1.59,-0.17,0.15,2.44,-15.5,4.15
-2,0,7,-1.49,-0.19,0.27,0.37,-19.41,1.71
-2,0,7,-1.49,-0.19,0.27,0.37,-19.41,1.71
-2,-1,7,-1.37,-0.14,0.36,-3.36,-24.9,0.24
-2,-1,7,-1.21,-0.12,0.41,-5.8,-29.48,-0.92
-2,-1,7,-1.18,-0.14,0.39,-2.69,-38.82,-1.71
-2,-1,7,-1.22,-0.17,0.37,-0.55,-47.61,-2.93
-2,-1,7,-1.22,-0.17,0.37,-8.42,-48.34,-4.76
-2,-1,7,-1.24,-0.18,0.35,-8.42,-48.34,-4.76
-1,-1,7,-1.25,-0.19,0.33,-20.63,-48.03,-6.65
-1,-1,7,-1.27,-0.16,0.33,-24.78,-48.58,-6.29
0,-1,6,-1.24,-0.11,0.3,-24.78,-47.42,-5.86
0,-1,4,-1.19,-0.02,0.23,-22.89,-43.4,-5.07
0,-1,3,-1.19,-0.02,0.23,-15.99,-38.15,-4.15
0,-1,3,-1.09,0.02,0.17,-15.99,-38.15,-4.15
0,-1,3,-1,0.05,0.1,-6.59,-35.89,-4.39
0,-1,3,-0.92,0.03,0.01,0.31,-37.17,-4.88
0,-1,3,-0.88,0.03,-0.08,7.63,-42.42,-4.21
0,-1,3,-0.88,0.03,-0.08,14.28,-51.7,-4.46
0,-1,3,-0.79,0,-0.15,14.28,-51.7,-4.46
0,-1,3,-0.69,-0.09,-0.29,10.5,-68.91,-5.8
0,-1,3,-0.78,-0.09,-0.38,-5.68,-103.21,-7.69
0,-1,3,-0.97,-0.07,-0.3,-17.27,-132.39,-8.12
0,-1,3,-1.15,-0.08,0.01,-4.03,-122.56,-4.64
0,-1,3,-1.15,-0.08,0.01,25.27,-72.75,1.71
0,-1,3,-1.07,-0.16,0.46,25.27,-72.75,1.71
0,-1,3,-0.92,-0.3,0.58,37.54,-19.1,4.58
1,-1,3,-0.85,-0.31,0.37,23.38,-2.75,6.47
1,-1,3,-0.76,-0.28,0.17,5.74,13,8.18
1,-1,3,-0.76,-0.28,0.17,5.74,13,8.18
1,-1,3,-0.65,-0.16,0.01,-3.05,26.25,10.62
1,-1,3,-0.67,-0.12,-0.01,-2.32,33.14,11.9
1,-1,3,-0.64,-0.08,-0.07,-6.35,35.03,11.41
1,-1,3,-0.67,-0.12,-0.1,-3.78,36.32,11.9
1,-1,3,-0.67,-0.12,-0.1,-3.78,36.32,11.9
1,-1,3,-0.67,-0.11,-0.16,0.98,45.1,12.27
1,-1,3,-0.68,-0.09,-0.13,2.75,52.67,12.27
1,-1,3,-0.66,-0.09,-0.1,2.81,55.54,10.38
1,-1,3,-0.7,-0.08,-0.08,0.73,51.64,8.36
1,-1,3,-0.7,-0.08,-0.08,0.73,51.64,8.36
1,-1,3,-0.74,-0.06,-0.08,0.24,47.85,6.23
1,-1,3,-0.78,-0.04,-0.09,0.92,44.86,3.72
1,-1,3,-0.81,-0.06,-0.09,0.31,42.05,0.92
1,-1,4,-0.83,-0.06,-0.09,-1.28,39.61,-2.32
1,0,6,-0.83,-0.06,-0.09,-1.28,39.61,-2.32
1,0,7,-0.86,-0.05,-0.11,-3.66,35.89,-4.15
2,1,8,-0.88,-0.03,-0.13,-6.29,32.71,-6.47
2,1,8,-0.91,-0.02,-0.16,-7.81,30.21,-8.67
2,2,9,-0.9,-0.05,-0.14,-7.02,29.91,-10.86
2,3,9,-0.9,-0.05,-0.14,-7.02,29.91,-10.86
2,3,10,-0.9,-0.09,-0.12,-7.2,29.66,-13.12
2,3,10,-0.91,-0.12,-0.09,-8.42,26.37,-15.38
2,3,10,-0.92,-0.14,-0.08,-12.76,23.62,-17.46
2,3,10,-0.92,-0.15,-0.08,-19.1,21.97,-19.1
3,3,10,-0.92,-0.15,-0.08,-25.02,20.14,-20.32
3,3,10,-0.93,-0.14,-0.09,-25.02,20.14,-20.32
3,4,10,-0.97,-0.11,-0.11,-28.02,18.07,-20.51
3,4,10,-1,-0.09,-0.11,-28.32,16.6,-20.57
3,4,10,-1.06,-0.07,-0.1,-25.51,14.95,-20.51
3,4,10,-1.06,-0.07,-0.1,-21.18,13.37,-20.45
3,4,11,-1.13,-0.06,-0.04,-21.18,13.37,-20.45
3,4,11,-1.18,-0.04,-0.02,-18.37,14.22,-19.9
3,4,11,-1.2,-0.03,0.02,-15.44,14.71,-19.04
3,4,11,-1.18,0.01,0.06,-10.07,15.87,-17.46
3,4,11,-1.12,0.03,0.13,-3.23,17.15,-16.3
3,3,11,-1.12,0.03,0.13,-3.23,17.15,-16.3
3,3,11,-1.1,0.01,0.12,1.89,13.55,-14.47
3,3,11,-1.11,-0.07,0.06,3.42,8.24,-12.63
3,3,11,-1.19,-0.16,-0.01,-1.59,4.03,-11.54
3,3,11,-1.19,-0.16,-0.01,-11.6,2.14,-10.56
3,3,11,-1.32,-0.16,-0.1,-11.6,2.14,-10.56
3,3,11,-1.4,-0.08,-0.11,-17.21,2.93,-9.03
3,3,11,-1.48,-0.01,-0.02,-14.4,4.03,-6.71
3,3,11,-1.49,-0.04,0.18,-5.07,3.85,-3.97
3,3,11,-1.49,-0.04,0.18,-3.42,4.39,-0.55
3,3,11,-1.46,-0.01,0.39,-3.42,4.39,-0.55
3,3,11,-1.41,0.08,0.5,-15.99,1.65,1.46
3,3,11,-1.33,0.18,0.44,-32.23,-5.8,1.04
3,3,11,-1.29,0.18,0.3,-40.53,-17.76,1.04
3,3,11,-1.29,0.18,0.3,-40.53,-17.76,1.04
2,3,11,-1.22,0.15,0.21,-38.02,-23.25,2.32
2,3,11,-1.18,0.14,0.1,-36.5,-25.21,4.27
2,3,11,-1.18,0.14,0.02,-35.71,-31.07,7.2
2,3,11,-1.18,0.14,0.02,-32.78,-40.28,9.46
2,3,11,-1.23,0.19,-0.02,-32.78,-40.28,9.46
2,3,11,-1.29,0.31,-0.05,-25.7,-48.16,10.44
2,3,11,-1.28,0.37,0,-12.27,-51.88,10.93
1,3,11,-1.24,0.32,0.1,3.11,-56.58,11.17
1,3,11,-1.24,0.32,0.1,3.11,-56.58,11.17
1,3,11,-1.18,0.2,0.17,14.16,-63.48,10.62
1,3,11,-1.14,0.11,0.18,20.2,-68.91,11.66
1,3,11,-1.15,0.15,0.17,22.03,-70.5,12.39
1,2,11,-1.15,0.15,0.17,22.28,-68.24,11.35
1,2,11,-1.12,0.14,0.13,22.28,-68.24,11.35
0,2,11,-1.04,0.1,0.12,28.44,-63.78,9.7
0,2,11,-0.87,0.07,0.05,29.17,-62.5,6.23
0,2,11,-0.68,0.04,-0.19,11.96,-74.89,0.98
0,2,11,-0.68,0.04,-0.19,11.96,-74.89,0.98
0,2,11,-0.9,-0.01,-0.41,-11.54,-106.38,-2.56
0,2,11,-1.25,-0.03,-0.24,-21.55,-130.19,-1.65
0,2,11,-1.27,-0.08,0.11,-10.93,-98.21,0.92
0,2,11,-1.27,-0.08,0.11,1.53,-33.94,2.14
0,2,11,-1.03,-0.1,0.41,1.53,-33.94,2.14
0,2,11,-0.86,-0.08,0.38,4.21,13,4.15
0,2,11,-0.73,-0.11,0.22,1.95,39.25,4.33
0,2,11,-0.64,-0.14,0.09,-4.88,52.67,5
1,2,11,-0.64,-0.14,0.09,-4.88,52.67,5
1,2,11,-0.64,-0.1,0.03,-7.63,60.55,6.29
1,2,11,-0.62,-0.05,0,-12.08,68.85,5.43
1,2,11,-0.65,0.04,-0.06,-16.97,77.21,4.52
1,2,11,-0.59,0.06,-0.03,-13.37,87.1,3.23
1,2,11,-0.59,0.06,-0.03,-13.37,87.1,3.23
1,2,11,-0.6,0.06,-0.03,-5.43,92.9,2.44
1,2,11,-0.59,0.01,-0.03,0.98,95.95,1.65
1,2,11,-0.61,0.01,-0.04,2.01,97.6,1.4
1,2,11,-0.61,0.01,-0.04,2.01,97.6,1.4
1,2,10,-0.64,0.01,-0.08,-0.55,95.15,1.65
1,2,10,-0.67,0.06,-0.12,-2.69,90.33,2.26
0,2,10,-0.72,0.12,-0.16,-1.1,84.17,2.56
0,3,10,-0.72,0.12,-0.16,2.26,76.48,2.69
0,3,10,-0.77,0.16,-0.17,2.26,76.48,2.69
0,3,10,-0.79,0.16,-0.16,9.03,69.4,2.93
0,3,10,-0.8,0.13,-0.14,17.7,60.12,3.05
0,3,9,-0.81,0.09,-0.12,22.95,46.57,3.66
0,3,9,-0.81,0.09,-0.12,22.95,46.57,3.66
-1,3,9,-0.87,0.09,-0.13,24.72,32.71,4.76
-1,3,8,-0.9,0.06,-0.12,26.79,24.35,6.47
-1,4,7,-0.93,0.05,-0.1,28.44,19.23,8.3
-1,4,5,-0.93,0.05,-0.1,29.72,15.63,9.95
-1,4,4,-0.96,0.05,-0.06,29.72,15.63,9.95
-1,4,3,-0.99,0.03,-0.03,30.03,13.18,11.54
-1,4,3,-1.02,0.03,-0.01,28.63,11.35,13.31
-1,4,3,-1.07,0.02,0.01,27.34,10.25,14.95
-1,4,3,-1.07,0.02,0.01,27.34,10.25,14.95
-1,4,3,-1.12,0.02,0.02,25.82,10.07,16.17
-1,4,3,-1.17,0.02,0.01,23.5,9.83,17.4
-1,3,3,-1.22,0.03,-0.01,20.57,9.09,18.25
-1,3,3,-1.22,0.03,-0.01,20.57,9.09,18.25
-1,3,3,-1.26,0.03,-0.03,17.64,8.12,18.13
-1,3,3,-1.28,0.02,-0.03,15.69,6.9,17.58
-1,3,3,-1.27,0.01,-0.02,13.92,6.23,17.03
-1,2,3,-1.27,0.01,-0.02,11.9,5.55,16.3
-1,2,3,-1.23,0,0,11.9,5.55,16.3
-1,2,3,-1.21,0.01,0.03,9.7,4.21,15.56
-1,1,3,-1.24,0.03,0.04,5.92,1.71,14.59
-1,1,3,-1.33,0.06,0.04,2.44,-1.59,12.76
-1,1,3,-1.33,0.06,0.04,2.44,-1.59,12.76
-1,1,3,-1.47,0.04,0.03,0.24,-4.33,11.17
-1,1,3,-1.58,-0.02,0.04,1.16,-8.18,9.03
-1,1,3,-1.59,-0.1,0.08,4.46,-12.33,5.98
-1,0,3,-1.59,-0.1,0.08,6.47,-15.5,2.99
-1,0,3,-1.49,-0.16,0.18,6.47,-15.5,2.99
-1,0,3,-1.37,-0.16,0.28,7.75,-19.96,0.55
-1,0,3,-1.24,-0.18,0.38,9.52,-25.39,-1.22
-1,0,3,-1.18,-0.19,0.42,11.66,-33.14,-2.75
-1,0,3,-1.18,-0.19,0.42,12.27,-41.75,-4.33
0,0,3,-1.18,-0.23,0.41,12.27,-41.75,-4.33
0,0,3,-1.24,-0.3,0.41,6.16,-48.71,-6.9
0,0,2,-1.26,-0.27,0.39,-5.31,-50.48,-9.09
0,0,2,-1.26,-0.2,0.38,-12.57,-50.48,-10.01
0,0,1,-1.26,-0.2,0.38,-11.84,-49.68,-10.07
0,0,-1,-1.25,-0.12,0.36,-11.84,-49.68,-10.07
0,0,-3,-1.22,-0.03,0.31,-8.54,-46.81,-9.7
0,-1,-3,-1.15,0.02,0.23,-3.54,-40.77,-10.19
0,-1,-3,-1.05,0.04,0.14,0.92,-34.36,-11.47
0,-1,-3,-1,0.03,0.03,5.86,-31.98,-11.84
0,-1,-3,-1,0.03,0.03,5.86,-31.98,-11.84
0,-1,-3,-0.98,0.03,-0.07,16.48,-33.14,-11.05
0,-1,-3,-0.97,0.04,-0.13,27.83,-36.01,-10.56
0,-1,-3,-0.86,-0.04,-0.13,32.41,-42.6,-11.72
0,-1,-3,-0.65,-0.2,-0.33,18.55,-61.58,-13.18
0,-1,-3,-0.65,-0.2,-0.33,-5.49,-111.57,-12.27
0,-1,-3,-0.81,-0.22,-0.45,-5.49,-111.57,-12.27
0,-1,-3,-1.14,-0.17,-0.24,-13.24,-142.88,-8.3
0,-1,-3,-1.33,-0.08,0.3,5.98,-113.34,-1.59
0,-1,-3,-1.02,-0.24,0.58,36.62,-41.2,2.32
0,-1,-3,-0.86,-0.32,0.5,42.91,-1.1,5.8
0,-1,-3,-0.86,-0.32,0.5,29.66,12.57,8.18
0,-1,-3,-0.76,-0.32,0.28,29.66,12.57,8.18
0,-1,-3,-0.64,-0.25,0.09,13.49,25.76,9.46
0,-1,-3,-0.6,-0.13,-0.02,8.91,34.42,11.05
0,-1,-3,-0.57,-0.14,0,10.68,39.86,10.68
1,-1,-3,-0.57,-0.14,0,6.41,39,9.77
1,-1,-3,-0.59,-0.12,-0.04,6.41,39,9.77
1,-1,-3,-0.62,-0.12,-0.09,6.47,39.86,9.58
1,-1,-3,-0.6,-0.13,-0.12,8.06,47.67,8.91
1,-1,-3,-0.6,-0.1,-0.12,8.3,55.05,7.81
1,-1,-3,-0.6,-0.1,-0.12,6.96,57.5,5.74
1,-1,-3,-0.59,-0.09,-0.12,6.96,57.5,5.74
1,-1,-3,-0.62,-0.08,-0.1,4.7,51.76,3.36
1,-1,-3,-0.66,-0.05,-0.1,2.87,46.02,1.04
1,-1,-3,-0.7,-0.04,-0.12,1.59,41.75,-1.34
1,-1,-3,-0.72,-0.03,-0.12,0.37,39.06,-3.85
1,0,-2,-0.72,-0.03,-0.12,0.37,39.06,-3.85
1,1,-2,-0.74,-0.03,-0.14,-1.4,36.74,-6.1
1,3,-2,-0.76,-0.03,-0.13,-3.42,33.08,-8.48
1,4,-1,-0.81,-0.02,-0.13,-6.41,30.15,-10.56
1,5,-1,-0.81,-0.01,-0.13,-8.3,30.76,-12.21
1,6,-1,-0.81,-0.01,-0.13,-7.32,30.09,-13.67
1,7,0,-0.85,-0.03,-0.11,-7.32,30.09,-13.67
1,7,1,-0.88,-0.05,-0.11,-6.47,29.3,-15.44
2,7,3,-0.91,-0.07,-0.11,-7.32,28.14,-17.15
2,7,3,-0.94,-0.09,-0.1,-9.03,25.82,-18.62
2,7,3,-0.94,-0.09,-0.1,-10.31,22.95,-19.96
2,7,4,-0.98,-0.09,-0.11,-10.31,22.95,-19.96
2,7,4,-1.03,-0.1,-0.09,-9.03,19.04,-20.81
2,7,4,-1.08,-0.12,-0.05,-6.35,15.87,-21.18
2,7,4,-1.13,-0.13,0,-3.91,13.79,-21.91
2,7,4,-1.16,-0.15,0.03,-2.81,14.16,-22.52
3,6,4,-1.16,-0.15,0.03,-2.81,14.16,-22.52
3,6,4,-1.18,-0.15,0.06,-2.62,15.2,-23.13
3,6,4,-1.17,-0.14,0.09,-2.26,16.78,-22.83
3,6,4,-1.13,-0.08,0.09,-3.48,18.74,-21.97
3,6,4,-1.08,-0.03,0.1,-3.97,16.72,-20.81
3,6,4,-1.08,-0.03,0.1,-3.97,16.72,-20.81
3,6,4,-1.08,-0.03,0.07,-1.1,10.25,-18.92
3,6,4,-1.15,-0.11,0.03,-0.18,6.04,-17.33
3,6,4,-1.26,-0.18,-0.02,-4.64,4.94,-15.99
3,6,4,-1.37,-0.17,-0.08,-12.51,5.13,-14.34
3,6,4,-1.37,-0.17,-0.08,-12.51,5.13,-14.34
4,6,4,-1.47,-0.11,-0.04,-16.72,5.74,-11.78
4,6,4,-1.5,-0.09,0.16,-12.94,5.19,-7.57
4,6,4,-1.51,-0.02,0.43,-13.18,3.66,-3.17
3,6,4,-1.47,0.12,0.53,-28.08,0.61,-0.85
3,5,4,-1.47,0.12,0.53,-28.08,0.61,-0.85
3,5,4,-1.47,0.19,0.47,-47.36,-11.6,-0.67
3,5,4,-1.51,0.2,0.31,-51.03,-26,0.31
3,5,4,-1.45,0.18,0.16,-40.47,-29.66,2.01
3,5,4,-1.45,0.18,0.16,-40.47,-29.66,2.01
3,5,4,-1.42,0.17,0.08,-27.1,-36.8,4.64
3,5,4,-1.4,0.16,0.03,-18.62,-47.91,6.59
3,5,4,-1.37,0.18,0.06,-11.9,-57.56,8.54
3,5,4,-1.36,0.17,0.14,-1.46,-69.7,10.68
2,5,4,-1.36,0.17,0.14,-1.46,-69.7,10.68
1,5,4,-1.35,0.2,0.21,5.74,-78.98,12.39
-1,5,4,-1.32,0.21,0.24,8.79,-81.24,14.28
-2,5,4,-1.27,0.2,0.24,13.61,-78.61,15.08
-3,5,5,-1.27,0.2,0.24,13.61,-78.61,15.08
-3,5,5,-1.24,0.13,0.23,19.71,-73.79,15.69
-3,4,5,-1.18,0.07,0.22,27.22,-64.64,17.88
-4,4,5,-1.09,0.14,0.2,33.39,-57.62,18.07
-4,4,5,-0.83,0.14,0.01,25.76,-62.62,11.9
-4,4,6,-0.83,0.14,0.01,25.76,-62.62,11.9
-4,4,5,-0.78,0.01,-0.32,3.11,-87.28,5.07
-4,4,5,-1.12,-0.03,-0.36,-20.39,-127.5,2.93
-4,4,5,-1.48,-0.04,0.1,-18.25,-130.74,7.63
-4,4,5,-1.48,-0.04,0.1,-1.16,-58.96,10.31
-4,4,5,-1.17,-0.05,0.43,-1.16,-58.96,10.31
-4,4,5,-0.87,0.02,0.41,12.21,7.08,9.46
-4,4,5,-0.7,-0.02,0.2,11.78,23.74,7.02
-4,4,5,-0.6,-0.06,0.05,1.95,31.86,4.27
-4,4,5,-0.6,-0.06,0.05,-1.28,37.23,4.21
-4,4,5,-0.64,-0.07,-0.07,-1.28,37.23,4.21
-4,4,5,-0.58,-0.09,-0.1,-0.85,49.8,3.66
-4,4,5,-0.56,-0.07,-0.06,0.43,60.73,2.5
-3,4,5,-0.51,-0.01,-0.02,3.05,67.38,1.4
-3,4,5,-0.51,-0.01,-0.02,3.05,67.38,1.4
-3,4,5,-0.53,0,0.01,8.48,74.65,0.92
-3,4,5,-0.52,-0.04,0.02,16.6,83.5,-0.24
-3,4,5,-0.52,-0.07,0.01,21.06,90.52,-0.79
-3,4,5,-0.55,-0.09,-0.02,20.69,93.44,-1.22
-3,4,5,-0.55,-0.09,-0.02,20.69,93.44,-1.22
-3,4,5,-0.58,-0.08,-0.08,15.01,91.74,-1.77
-3,4,5,-0.64,-0.08,-0.11,8.61,86.06,-1.46
-2,4,5,-0.69,0,-0.14,4.82,80.26,-0.85
-2,4,5,-0.75,0.08,-0.14,6.04,76.6,0.12
-2,4,5,-0.75,0.08,-0.14,6.04,76.6,0.12
-2,4,5,-0.78,0.12,-0.11,11.66,72.51,0.43
-2,4,5,-0.8,0.12,-0.07,20.39,67.14,0.61
-2,4,5,-0.82,0.09,-0.05,30.09,59.2,1.34
-2,4,5,-0.82,0.09,-0.05,36.68,48.89,2.38
-2,4,5,-0.87,0.06,-0.05,36.68,48.89,2.38
-2,4,5,-0.91,0.01,-0.1,39.67,39.55,3.72
-2,4,5,-0.94,-0.02,-0.12,41.26,32.84,5.43
-2,4,5,-0.96,-0.02,-0.1,42.05,27.34,7.45
-2,4,5,-0.96,-0.02,-0.1,42.05,27.34,7.45
-2,4,5,-0.97,-0.02,-0.07,41.75,22.64,9.89
-2,4,5,-1.01,-0.02,-0.03,41.26,17.94,12.39
-2,4,5,-1.04,-0.02,0.01,40.16,15.38,14.4
-2,4,5,-1.09,-0.04,0.04,37.96,15.5,15.81
-2,4,5,-1.09,-0.04,0.04,37.96,15.5,15.81
-2,4,5,-1.12,-0.05,0.06,33.69,18.13,17.03
-1,4,5,-1.16,-0.05,0.04,26.43,20.69,18.31
-1,3,5,-1.18,-0.04,0.01,19.71,22.09,18.86
0,3,5,-1.18,-0.04,0.01,19.71,22.09,18.86
0,3,5,-1.17,-0.05,0,14.53,22.16,19.04
1,3,5,-1.15,-0.03,0,11.54,19.84,18.98
1,3,5,-1.12,-0.02,0.02,9.7,15.75,18.68
1,2,5,-1.12,-0.02,0.02,8,8.42,18.37
1,2,5,-1.13,0,0.05,8,8.42,18.37
1,1,5,-1.26,0.03,0.06,6.59,-2.01,18.43
1,1,5,-1.47,0.03,0.06,6.1,-11.23,18.43
1,1,5,-1.61,-0.01,0.09,6.84,-19.78,16.36
1,0,5,-1.61,-0.01,0.09,6.84,-19.78,16.36
1,0,5,-1.6,-0.12,0.2,9.4,-26.37,11.72
1,0,5,-1.53,-0.28,0.36,8.73,-30.09,7.81
1,0,5,-1.35,-0.33,0.49,1.89,-33.94,4.88
1,0,5,-1.35,-0.33,0.49,-8.12,-45.53,2.01
1,0,5,-1.31,-0.28,0.59,-8.12,-45.53,2.01
1,0,5,-1.37,-0.26,0.54,-13.73,-58.84,-0.06
1,0,5,-1.41,-0.22,0.51,-8.97,-60.61,-1.89
1,0,5,-1.41,-0.24,0.45,-5.19,-57.92,-3.97
1,0,4,-1.41,-0.24,0.45,-6.53,-56.4,-5.25
1,0,-1,-1.4,-0.21,0.4,-6.53,-56.4,-5.25
1,0,-6,-1.38,-0.19,0.39,-6.41,-54.87,-5.86
1,0,-9,-1.27,-0.11,0.36,-5.25,-48.71,-6.96
1,-1,-11,-1.21,-0.07,0.3,-0.06,-45.47,-7.39
1,-1,-13,-1.13,-0.05,0.21,5.98,-41.93,-8.06
1,-1,-14,-1.13,-0.05,0.21,5.98,-41.93,-8.06
1,-1,-15,-1.03,-0.02,0.1,7.32,-38.21,-9.28
1,-1,-15,-0.98,-0.05,0,8.3,-38.76,-9.83
1,-1,-16,-0.93,0,-0.1,10.31,-40.22,-9.58
1,-1,-16,-0.87,-0.01,-0.12,12.08,-46.57,-10.62
1,-1,-16,-0.87,-0.01,-0.12,5,-62.81,-11.6
1,-1,-16,-0.6,-0.13,-0.23,5,-62.81,-11.6
1,-1,-16,-0.62,-0.21,-0.48,-17.52,-106.81,-12.02
1,-1,-16,-0.97,-0.14,-0.35,-37.78,-156.68,-9.16
2,-1,-15,-1.35,0.06,0.19,-19.65,-136.9,-0.12
2,-1,-15,-0.97,-0.06,0.39,23.25,-52.67,3.17
2,-1,-15,-0.74,-0.23,0.41,49.19,-3.48,6.53
2,-1,-16,-0.74,-0.23,0.41,49.19,-3.48,6.53
2,-1,-16,-0.66,-0.3,0.24,49.44,15.01,10.07
2,-1,-16,-0.56,-0.28,0.03,35.46,28.08,11.78
2,-1,-16,-0.51,-0.22,-0.08,25.63,35.34,12.88
2,-1,-16,-0.49,-0.21,-0.06,17.46,35.77,12.08
2,-1,-15,-0.49,-0.21,-0.06,17.46,35.77,12.08
2,-1,-15,-0.51,-0.16,-0.11,5.49,30.88,11.29
2,-1,-15,-0.53,-0.18,-0.17,4.88,31.56,10.8
2,-1,-15,-0.55,-0.11,-0.23,5.74,41.02,10.56
2,-1,-15,-0.53,-0.08,-0.21,10.62,49.26,8.36
2,-1,-15,-0.53,-0.08,-0.21,10.62,49.26,8.36
2,-1,-15,-0.54,-0.11,-0.19,13.67,50.6,5.43
2,-1,-15,-0.58,-0.13,-0.15,12.15,45.47,2.81
2,-1,-15,-0.62,-0.1,-0.14,7.51,39.92,0.37
2,-1,-15,-0.68,-0.08,-0.13,3.78,35.89,-2.26
2,-1,-15,-0.68,-0.08,-0.13,1.16,33.45,-4.7
2,0,-14,-0.73,-0.08,-0.09,1.16,33.45,-4.7
2,0,-13,-0.77,-0.06,-0.09,-3.36,31.68,-7.02
2,0,-10,-0.82,-0.05,-0.1,-6.65,29.6,-9.4
2,0,-8,-0.86,-0.05,-0.12,-7.26,27.04,-11.54
2,0,-5,-0.89,-0.07,-0.12,-6.84,24.9,-13.79
2,0,-1,-0.89,-0.07,-0.12,-6.84,24.9,-13.79
2,0,3,-0.92,-0.09,-0.12,-7.2,24.17,-16.24
3,0,5,-0.94,-0.11,-0.12,-8.06,25.7,-18.43
3,1,6,-0.96,-0.12,-0.1,-8.36,28.38,-20.45
3,2,6,-1,-0.14,-0.09,-8.73,26.92,-22.46
3,2,6,-1,-0.14,-0.09,-10.62,23.86,-23.62
4,3,7,-1.06,-0.16,-0.08,-10.62,23.86,-23.62
4,3,7,-1.12,-0.16,-0.08,-13.61,22.03,-24.9
4,3,7,-1.17,-0.14,-0.05,-15.01,21.61,-25.63
4,3,7,-1.22,-0.11,0,-13.67,21.18,-25.76
4,3,7,-1.22,-0.11,0,-11.41,20.39,-25.51
4,3,7,-1.25,-0.09,0.04,-11.41,20.39,-25.51
4,3,7,-1.25,-0.07,0.08,-9.46,19.23,-24.9
4,3,7,-1.28,-0.02,0.1,-6.59,18.68,-23.38
4,3,7,-1.33,0.02,0.07,-3.72,18.49,-21.42
4,3,7,-1.33,0.02,0.07,-0.98,15.44,-19.23
4,3,7,-1.44,0.04,0.02,-0.98,15.44,-19.23
4,2,7,-1.55,0.07,-0.02,1.89,11.35,-15.93
4,2,7,-1.61,0.07,0,3.78,7.39,-12.21
4,2,7,-1.62,0.09,0.09,6.77,0.12,-8.85
4,2,7,-1.62,0.09,0.09,6.77,0.12,-8.85
4,2,7,-1.63,0.12,0.19,8.91,-10.25,-5.86
3,1,7,-1.58,0.06,0.3,10.8,-19.41,-3.36
3,1,7,-1.55,0,0.41,13.85,-23.32,-1.04
3,1,7,-1.55,0,0.41,10.68,-23.13,1.34
3,1,7,-1.51,-0.04,0.46,10.68,-23.13,1.34
3,1,7,-1.5,-0.05,0.45,2.87,-22.4,1.95
3,1,7,-1.49,-0.04,0.38,-7.75,-24.78,1.16
3,1,7,-1.42,-0.02,0.27,-16.11,-27.77,0.79
2,1,7,-1.42,-0.02,0.27,-16.11,-27.77,0.79
2,1,7,-1.41,0.03,0.22,-17.21,-35.58,1.65
2,1,7,-1.38,0.04,0.22,-11.23,-42.36,2.93
2,1,7,-1.3,0.09,0.19,-10.56,-41.93,4.7
2,1,7,-1.3,0.09,0.19,-6.59,-44.19,6.1
2,0,7,-1.2,0.13,0.25,-6.59,-44.19,6.1
2,0,7,-1.15,0.13,0.25,-0.49,-50.23,7.63
2,0,7,-1.15,0.14,0.21,6.16,-52.98,10.01
1,-1,7,-1.12,0.08,0.19,14.71,-48.83,12.39
1,-1,7,-1.12,0.08,0.19,14.71,-48.83,12.39
1,-2,7,-1.03,0.07,0.16,20.02,-42.91,14.4
1,-3,7,-0.85,0.13,0.03,15.81,-43.88,12.15
1,-2,7,-0.69,0.11,-0.24,-5.31,-70.07,5.25
0,-2,7,-0.93,0.08,-0.43,-28.44,-114.5,1.4
0,-2,7,-0.93,0.08,-0.43,-28.44,-114.5,1.4
-1,-2,7,-1.2,0.09,-0.19,-26.37,-135.99,3.72
-1,-2,7,-1.19,0.06,0.2,-3.97,-97.41,6.71
-1,-2,7,-0.95,0.05,0.45,12.51,-29.91,7.26
-1,-2,7,-0.73,-0.01,0.43,17.46,16.48,6.53
-1,-2,7,-0.73,-0.01,0.43,17.46,16.48,6.53
-1,-2,7,-0.58,-0.13,0.27,16.85,34.24,4.46
-1,-2,7,-0.62,-0.14,0.07,2.87,32.17,4.15
-1,-2,7,-0.64,-0.07,-0.08,-12.33,34.18,4.15
-1,-2,7,-0.57,-0.01,-0.05,-16.3,42.24,3.11
-1,-2,7,-0.57,-0.01,-0.05,-16.3,42.24,3.11
-1,-2,7,-0.58,0.02,-0.03,-10.01,44.25,2.81
-1,-2,7,-0.61,0.02,-0.01,-0.31,49.5,2.44
-1,-2,7,-0.54,0.04,0.01,6.23,64.39,2.87
-1,-2,7,-0.5,0.03,0.02,11.78,76.84,2.38
-1,-2,7,-0.5,0.03,0.02,11.78,76.84,2.38
-1,-2,7,-0.49,-0.01,-0.01,14.89,80.57,1.89
-1,-2,7,-0.49,-0.03,-0.03,15.08,78.8,0.98
-1,-2,7,-0.53,-0.05,-0.04,10.93,75.87,1.16
-1,-2,7,-0.59,-0.03,-0.06,5.68,73.91,1.89
-1,-2,7,-0.59,-0.03,-0.06,5.68,73.91,1.89
-1,-2,7,-0.63,0,-0.1,0.92,73.12,2.56
-1,-2,7,-0.69,0.02,-0.14,-2.44,71.84,3.36
-1,-2,7,-0.74,0.07,-0.16,0.49,70.19,4.39
-1,-1,7,-0.77,0.11,-0.15,8.48,68.05,5.55
-1,-1,7,-0.77,0.11,-0.15,8.48,68.05,5.55
-1,-1,7,-0.78,0.1,-0.12,19.1,63.48,6.47
-1,-1,7,-0.81,0.09,-0.09,27.53,54.5,7.08
-1,-1,7,-0.84,0.08,-0.09,32.78,42.05,7.87
-1,-1,7,-0.9,0.06,-0.09,36.19,30.03,8.91
-1,-1,7,-0.9,0.06,-0.09,36.19,30.03,8.91
-1,0,6,-0.92,0.03,-0.09,38.88,23.8,10.19
-1,0,6,-0.94,0,-0.04,40.04,19.84,11.78
-1,0,6,-0.95,-0.01,-0.02,37.35,16.05,13.43
-1,0,6,-0.99,-0.01,-0.01,32.65,13.06,15.2
-1,0,6,-0.99,-0.01,-0.01,32.65,13.06,15.2
-1,0,6,-1.04,0,0,28.26,10.86,16.72
-1,0,6,-1.12,0.01,-0.01,23.5,11.72,18.01
-1,0,6,-1.16,0.01,-0.01,17.88,16.42,18.86
-1,0,6,-1.16,0.01,-0.01,17.88,16.42,18.86
-1,0,6,-1.19,0.02,-0.02,13.31,17.82,19.65
-1,0,6,-1.19,0.02,-0.03,10.86,14.28,20.14
-1,0,6,-1.19,0.04,-0.02,10.13,7.51,20.63
-1,0,6,-1.18,0.05,0,11.11,-0.12,20.63
-1,0,6,-1.18,0.05,0,11.11,-0.12,20.63
-1,0,6,-1.21,0.05,0.04,12.63,-7.14,20.51
-1,0,6,-1.32,0.07,0.06,13.67,-13.43,20.69
-1,0,6,-1.52,0.08,0.05,14.77,-20.26,19.96
-1,0,6,-1.52,0.08,0.05,14.77,-20.26,19.96
-1,0,6,-1.71,0.01,0.05,17.94,-25.94,17.33
-1,0,6,-1.73,-0.11,0.1,23.86,-28.32,12.94
-1,0,6,-1.61,-0.25,0.22,26.73,-27.89,8.18
-1,0,6,-1.5,-0.3,0.37,23.8,-31.74,3.91
-1,0,6,-1.5,-0.3,0.37,23.8,-31.74,3.91
-1,0,6,-1.36,-0.28,0.55,13.43,-41.75,0.24
-1,0,6,-1.39,-0.3,0.63,2.99,-57.25,-2.56
-1,-1,6,-1.45,-0.28,0.62,1.83,-66.47,-3.78
-1,-1,6,-1.52,-0.27,0.64,1.71,-69.89,-5.92
-1,-1,6,-1.52,-0.27,0.64,1.71,-69.89,-5.92
-1,-1,6,-1.52,-0.22,0.53,-5.8,-66.04,-8.48
-1,-1,6,-1.5,-0.18,0.47,-7.63,-56.46,-9.83
-1,-1,5,-1.37,-0.15,0.46,0.06,-41.02,-10.62
-1,-1,4,-1.27,-0.09,0.32,4.52,-32.35,-11.9
-1,-1,3,-1.27,-0.09,0.32,4.7,-28.63,-13.79
-1,-1,0,-1.18,-0.08,0.14,4.7,-28.63,-13.79
0,-1,0,-1.08,-0.08,-0.01,5.37,-26.73,-15.69
0,-1,0,-1,-0.08,-0.11,8.48,-26.31,-15.69
0,-1,0,-0.93,-0.06,-0.19,11.78,-29.54,-15.87
0,-1,0,-0.91,-0.04,-0.21,6.96,-38.51,-16.3
0,-1,0,-0.91,-0.04,-0.21,6.96,-38.51,-16.3
0,-1,0,-0.69,-0.22,-0.27,-3.54,-53.04,-16.11
0,-1,0,-0.66,-0.32,-0.41,-26.61,-93.32,-15.2
0,-1,0,-1.03,-0.24,-0.22,-45.17,-138.55,-11.41
0,-1,0,-1.34,0.01,0.16,-36.01,-122.38,-3.36
0,-1,0,-1.34,0.01,0.16,1.77,-51.82,0.49
0,-1,0,-1.1,-0.09,0.38,1.77,-51.82,0.49
0,-1,0,-0.81,-0.18,0.42,29.05,1.59,3.6
0,-1,0,-0.66,-0.28,0.28,34.79,23.99,6.9
0,-1,0,-0.53,-0.28,0.05,23.25,38.94,9.64
0,-1,0,-0.53,-0.28,0.05,23.25,38.94,9.64
0,-1,0,-0.49,-0.19,-0.11,14.77,45.65,11.9
0,-1,0,-0.47,-0.13,-0.12,11.29,46.81,12.7
0,-1,0,-0.51,-0.13,-0.13,3.05,40.34,12.94
0,-1,0,-0.53,-0.2,-0.16,2.81,37.23,12.21
0,-1,0,-0.53,-0.2,-0.16,2.81,37.23,12.21
1,-1,0,-0.54,-0.15,-0.2,1.22,46.81,11.66
1,-1,0,-0.55,-0.13,-0.17,2.38,56.27,10.25
1,-1,0,-0.56,-0.17,-0.11,2.75,56.58,7.87
1,-1,0,-0.61,-0.17,-0.08,-3.23,50.48,5.43
1,-1,0,-0.61,-0.17,-0.08,-3.23,50.48,5.43
2,-1,0,-0.65,-0.15,-0.07,-10.01,44.86,3.72
2,-1,0,-0.69,-0.13,-0.06,-15.81,41.02,0.79
2,-1,1,-0.73,-0.11,-0.04,-22.46,37.54,-1.59
2,-1,1,-0.77,-0.06,-0.06,-28.14,36.8,-3.05
2,-1,1,-0.77,-0.06,-0.06,-32.23,39.12,-4.39
2,-1,2,-0.73,-0.03,-0.08,-32.23,39.12,-4.39
2,0,2,-0.73,-0.01,-0.08,-31.92,37.72,-5.86
2,0,2,-0.74,-0.03,-0.09,-28.02,32.1,-7.14
2,0,2,-0.8,-0.06,-0.11,-25.27,26.37,-8.79
2,1,2,-0.85,-0.09,-0.13,-22.4,24.23,-10.74
2,1,2,-0.85,-0.09,-0.13,-22.4,24.23,-10.74
2,1,2,-0.9,-0.13,-0.1,-19.59,23.62,-12.76
3,2,2,-0.93,-0.15,-0.08,-18.92,22.64,-14.89
3,2,2,-0.97,-0.15,-0.03,-19.53,18.31,-16.42
3,2,3,-1.01,-0.14,0,-19.53,14.22,-17.21
3,2,3,-1.01,-0.14,0,-19.53,14.22,-17.21
3,2,3,-1.05,-0.09,0.03,-17.88,10.93,-17.88
3,2,2,-1.09,-0.05,0.06,-15.75,8.3,-18.31
3,2,2,-1.14,-0.02,0.07,-12.27,5.62,-18.19
3,2,2,-1.19,0,0.06,-7.39,4.39,-17.82
3,2,2,-1.19,0,0.06,-7.39,4.39,-17.82
3,2,3,-1.21,0.03,0.05,-1.83,6.59,-16.97
3,1,3,-1.16,0.03,0.07,5.98,9.7,-15.5
3,1,3,-1.16,0.02,0.07,14.04,7.2,-13.92
3,1,3,-1.16,0.02,0.07,14.04,7.2,-13.92
3,0,3,-1.2,-0.04,0.06,19.04,3.48,-13
3,0,3,-1.32,-0.12,0.01,17.52,-0.06,-12.08
3,0,3,-1.45,-0.14,-0.02,10.44,-2.14,-11.17
3,0,3,-1.54,-0.11,0.03,4.09,-3.85,-9.09
3,0,3,-1.54,-0.11,0.03,4.09,-3.85,-9.09
3,0,3,-1.59,0,0.14,1.22,-6.96,-6.04
3,-1,3,-1.62,0.14,0.25,0.79,-13.98,-3.54
3,-1,3,-1.67,0.13,0.4,5,-21.97,-1.28
3,-1,3,-1.67,0.13,0.4,8.85,-24.9,0.85
2,-1,3,-1.64,0.07,0.58,8.85,-24.9,0.85
2,-1,3,-1.65,0.11,0.6,-0.73,-26.06,1.77
2,-1,3,-1.57,0.1,0.52,-14.22,-25.88,1.71
2,-1,3,-1.44,0.04,0.42,-21.12,-26.61,1.65
2,-1,3,-1.44,0.04,0.42,-25.21,-32.23,2.69
2,-1,3,-1.36,0.03,0.28,-25.21,-32.23,2.69
2,-1,4,-1.32,0.07,0.13,-24.78,-37.84,4.52
1,-1,4,-1.26,0.11,0.05,-20.57,-40.53,6.04
0,-1,4,-1.2,0.2,0.04,-12.57,-44.62,6.96
0,-1,4,-1.2,0.2,0.04,-12.57,-44.62,6.96
0,-1,4,-1.2,0.25,0.01,-1.77,-53.34,7.93
0,-1,4,-1.17,0.25,0,13.12,-58.23,9.58
0,-1,4,-1.12,0.17,0.02,27.47,-56.4,11.05
0,-1,4,-1.12,0.17,0.02,37.54,-54.99,12.57
0,-1,4,-1.07,0.15,0.03,37.54,-54.99,12.57
0,-1,4,-0.98,0.17,0.06,38.33,-61.95,10.68
0,-1,4,-0.7,0.1,-0.15,26.06,-81.18,3.48
-1,-1,4,-0.86,-0.01,-0.45,0.31,-124.39,-2.01
-1,-1,4,-0.86,-0.01,-0.45,-13.98,-167.24,0.31
-1,-1,4,-1.39,-0.08,-0.21,-13.98,-167.24,0.31
-1,-1,4,-1.59,-0.16,0.44,4.7,-132.14,6.96
-1,-1,4,-1.06,-0.05,0.58,23.32,-31.62,8.61
-1,-1,4,-0.73,-0.1,0.43,27.1,21.48,6.96
0,-1,4,-0.73,-0.1,0.43,13.43,25.63,2.62
0,-1,4,-0.62,-0.12,0.16,13.43,25.63,2.62
0,-1,4,-0.6,-0.1,-0.05,-4.88,24.05,0.92
0,-1,4,-0.55,-0.05,-0.13,-13.43,31.92,-0.24
0,-1,4,-0.5,-0.04,-0.14,-12.94,40.95,-1.83
0,-1,4,-0.5,-0.04,-0.14,-10.25,48.28,-2.99
0,-1,4,-0.45,0,-0.11,-10.25,48.28,-2.99
0,-1,4,-0.41,0.02,-0.04,-4.88,54.57,-3.23
0,-1,4,-0.4,-0.01,0,1.16,59.27,-4.03
0,-1,4,-0.45,-0.02,0.02,5.8,65.86,-4.82
0,-1,4,-0.45,-0.02,0.02,12.15,76.54,-3.66
0,-1,4,-0.45,-0.05,0.03,12.15,76.54,-3.66
0,-1,4,-0.49,-0.07,0,16.48,84.84,-2.99
0,-1,4,-0.53,-0.07,-0.02,16.36,88.44,-2.62
0,-1,4,-0.58,-0.06,-0.06,11.66,86.98,-2.08
0,-1,4,-0.58,-0.06,-0.06,11.66,86.98,-2.08
1,-1,4,-0.63,0.01,-0.07,7.02,82.64,-1.22
0,-1,4,-0.71,0.09,-0.1,6.53,78.43,-0.18
0,-1,4,-0.77,0.13,-0.12,10.8,74.71,0.67
0,0,4,-0.82,0.15,-0.11,19.96,70.8,1.04
0,0,4,-0.82,0.15,-0.11,19.96,70.8,1.04
0,0,4,-0.85,0.14,-0.09,28.26,64.27,1.89
0,0,4,-0.89,0.1,-0.07,33.57,54.44,3.23
0,0,4,-0.92,0.08,-0.08,34.55,42.3,4.82
0,1,4,-0.92,0.08,-0.08,34.55,42.3,4.82
0,1,3,-0.98,0.06,-0.1,33.63,28.63,7.2
0,1,3,-1.01,0.05,-0.09,33.39,19.41,9.28
0,2,2,-1.03,0.05,-0.08,33.02,14.28,10.93
0,2,1,-1.03,0.05,-0.08,33.02,14.28,10.93
0,2,1,-1.06,0.03,-0.05,32.47,10.25,12.21
0,2,0,-1.09,0.02,-0.03,31.74,8.12,13.61
0,2,0,-1.15,0.01,0,30.58,6.16,14.89
0,2,0,-1.15,0.01,0,28.56,6.29,16.48
0,2,0,-1.23,0,0,28.56,6.29,16.48
0,2,0,-1.28,0.01,0.01,25.45,10.99,17.52
0,2,0,-1.28,0.02,0.03,23.19,12.76,18.13
0,2,0,-1.28,0.02,0.03,21.42,11.41,18.49
0,2,0,-1.27,0.02,0.05,21.42,11.41,18.49
0,2,0,-1.25,0.01,0.05,19.04,8.54,18.68
0,1,0,-1.26,0.02,0.06,15.56,5.62,18.98
-1,1,0,-1.26,0.02,0.06,12.33,0.49,19.1
-1,1,0,-1.35,0.03,0.06,12.33,0.49,19.1
-1,1,0,-1.54,0,0.03,9.28,-5.43,19.17
0,1,0,-1.77,-0.06,0.02,6.41,-10.8,17.76
0,0,0,-1.83,-0.16,0.04,3.23,-12.45,13.79
0,0,0,-1.83,-0.16,0.04,3.23,-12.45,13.79
0,0,0,-1.74,-0.26,0.11,-2.01,-8.36,9.16
0,0,0,-1.55,-0.31,0.24,-7.93,-7.51,5.49
0,-1,0,-1.38,-0.3,0.34,-14.83,-14.71,3.3
0,-1,0,-1.38,-0.3,0.34,-19.59,-26.86,1.77
0,-1,0,-1.21,-0.28,0.51,-19.59,-26.86,1.77
0,-1,0,-1.21,-0.22,0.6,-25.57,-46.33,0.06
0,-1,-1,-1.21,-0.18,0.54,-28.69,-60.12,-2.01
0,-1,-1,-1.26,-0.16,0.48,-29.66,-67.5,-3.54
0,-1,-1,-1.26,-0.16,0.48,-28.08,-64.15,-4.39
0,-1,-1,-1.26,-0.11,0.38,-28.08,-64.15,-4.39
0,-1,-1,-1.26,-0.1,0.3,-20.81,-55.05,-4.82
0,-1,-1,-1.21,-0.12,0.24,-10.19,-45.1,-5
0,-1,-2,-1.15,-0.1,0.13,-2.81,-37.54,-5.86
0,-1,-2,-1.1,-0.06,0.01,3.97,-33.57,-6.65
0,-1,-2,-1.1,-0.06,0.01,12.27,-31.56,-7.69
0,-1,-2,-1.03,0,-0.05,12.27,-31.56,-7.69
0,-1,-2,-1,0,-0.1,18.74,-32.17,-7.75
0,-1,-2,-0.97,0.02,-0.16,21.73,-34.48,-8.79
0,-1,-2,-0.94,0.01,-0.18,18.92,-45.1,-10.38
0,-1,-2,-0.72,-0.17,-0.29,7.93,-60.18,-12.76
0,-1,-2,-0.72,-0.17,-0.29,7.93,-60.18,-12.76
0,-1,-2,-0.61,-0.28,-0.49,-18.31,-94.3,-14.22
0,-1,-2,-0.85,-0.18,-0.39,-39,-146.06,-13
0,-1,-2,-1.18,-0.07,-0.05,-31.25,-156.43,-7.81
0,-1,-2,-1.32,-0.09,0.58,0.55,-102.84,-2.38
0,-1,-2,-0.9,-0.19,0.7,28.26,-14.83,0.43
0,-1,-2,-0.9,-0.19,0.7,28.26,-14.83,0.43
0,-1,-2,-0.67,-0.28,0.54,36.01,26.31,3.85
0,-1,-2,-0.61,-0.29,0.24,19.23,33.63,5.43
1,-1,-2,-0.55,-0.21,0,1.4,40.04,7.51
1,-1,-2,-0.51,-0.19,-0.05,-6.23,46.2,8.18
1,-1,-2,-0.51,-0.19,-0.05,-6.23,46.2,8.18
1,-1,-2,-0.53,-0.18,-0.09,-12.82,44.43,8.85
1,-1,-2,-0.57,-0.23,-0.16,-13.85,45.04,9.83
1,-1,-2,-0.61,-0.19,-0.23,-15.69,53.47,10.93
1,-1,-2,-0.59,-0.17,-0.2,-13.67,64.15,10.38
1,-1,-2,-0.59,-0.17,-0.2,-14.95,69.21,8.73
2,-1,-2,-0.58,-0.19,-0.15,-14.95,69.21,8.73
2,-1,-2,-0.6,-0.17,-0.12,-21.61,64.27,7.02
2,-1,-2,-0.64,-0.12,-0.08,-27.71,59.02,5.43
2,-1,-2,-0.68,-0.07,-0.05,-31.62,54.57,3.42
2,-1,-1,-0.77,-0.04,-0.06,-33.75,52.86,0.98
2,-1,-1,-0.77,-0.04,-0.06,-33.75,52.86,0.98
2,-1,0,-0.77,-0.03,-0.07,-34.61,55.79,-0.67
2,-1,1,-0.78,-0.03,-0.07,-35.58,57.56,-2.26
2,0,1,-0.8,-0.01,-0.11,-36.99,53.28,-3.42
2,0,1,-0.84,-0.02,-0.13,-37.72,45.78,-4.58
2,0,2,-0.84,-0.02,-0.13,-35.03,40.04,-6.16
2,0,2,-0.84,-0.03,-0.12,-35.03,40.04,-6.16
2,0,2,-0.86,-0.03,-0.1,-31.43,34.61,-8
2,1,2,-0.87,-0.05,-0.06,-27.59,28.02,-9.95
3,1,3,-0.88,-0.09,-0.02,-24.54,22.22,-12.15
3,1,3,-0.88,-0.09,-0.02,-23.25,17.09,-13.49
3,1,3,-0.9,-0.09,0,-23.25,17.09,-13.49
3,1,3,-0.95,-0.09,0,-21.48,10.8,-14.34
3,1,3,-0.99,-0.07,-0.01,-18.55,5.86,-15.2
3,1,3,-1.04,-0.07,0,-12.51,2.44,-15.63
3,1,3,-1.04,-0.07,0,-5.49,0.12,-15.69
3,1,3,-1.12,-0.08,0.03,-5.49,0.12,-15.69
3,1,3,-1.14,-0.06,0.04,-2.93,3.48,-16.11
3,1,3,-1.1,-0.01,0.07,-2.2,10.19,-15.63
3,0,3,-1.07,0.02,0.08,2.2,12.94,-14.83
3,0,3,-1.07,0.02,0.08,7.93,8.97,-13.73
3,0,3,-1.14,-0.01,0.08,7.93,8.97,-13.73
3,0,3,-1.29,-0.08,0.03,9.22,3.3,-12.82
3,0,3,-1.49,-0.12,-0.02,3.97,0.61,-12.15
3,0,3,-1.63,-0.09,-0.02,-4.21,0.49,-10.56
3,0,3,-1.63,-0.09,-0.02,-4.21,0.49,-10.56
3,0,2,-1.71,-0.01,0.09,-9.52,-0.85,-8.48
3,0,2,-1.72,0.09,0.29,-11.6,-6.04,-6.65
3,0,3,-1.73,0.19,0.44,-13.18,-15.99,-5.55
2,0,3,-1.69,0.1,0.62,-11.6,-28.75,-3.91
2,0,3,-1.69,0.1,0.62,-11.6,-28.75,-3.91
2,-1,3,-1.69,0.06,0.68,-13,-36.56,-2.44
2,-1,3,-1.56,0.07,0.64,-27.04,-32.9,-1.46
2,-1,3,-1.44,0.03,0.53,-37.96,-32.9,-1.04
2,-1,3,-1.37,0.02,0.37,-44.43,-37.54,-0.31
2,-1,3,-1.37,0.02,0.37,-44.92,-41.75,1.89
2,-1,3,-1.33,0.03,0.2,-44.92,-41.75,1.89
2,-1,3,-1.28,0.14,0.12,-38.7,-46.57,4.21
1,-1,3,-1.26,0.22,0.03,-27.4,-53.16,5.98
1,-1,3,-1.25,0.29,0.03,-12.45,-58.41,7.87
1,-1,3,-1.25,0.29,0.03,-12.45,-58.41,7.87
1,-1,3,-1.22,0.3,0.03,2.56,-58.29,9.22
1,-1,3,-1.17,0.23,0.07,15.87,-58.11,10.31
1,-1,3,-1.19,0.19,0.09,27.4,-60.79,11.47
1,-1,3,-0.98,0.23,0.11,30.58,-66.1,8.97
1,-1,3,-0.98,0.23,0.11,30.58,-66.1,8.97
1,-1,3,-0.65,0.09,-0.24,15.5,-89.6,0.55
1,-1,3,-1.14,-0.07,-0.43,-9.28,-153.38,-2.14
1,-1,3,-1.96,-0.18,0.43,-10.68,-175.66,7.32
1,-1,3,-1.3,-0.09,0.72,9.46,-65,14.4
1,-1,3,-1.3,-0.09,0.72,9.46,-65,14.4
1,-1,3,-0.88,-0.03,0.48,26.37,7.32,11.29
1,-1,3,-0.72,-0.07,0.2,17.03,15.75,6.59
1,-1,3,-0.66,-0.06,-0.03,1.28,19.53,5.43
1,-1,3,-0.66,-0.06,-0.03,-2.99,28.93,4.82
1,-1,3,-0.61,-0.03,-0.1,-2.99,28.93,4.82
1,-1,3,-0.56,-0.02,-0.08,-0.43,36.93,3.72
1,-1,3,-0.53,0,-0.09,0.73,43.21,1.59
1,-1,3,-0.5,-0.04,-0.05,3.66,52.61,-0.37
1,-1,3,-0.5,-0.04,-0.05,9.16,62.5,-2.14
1,-1,3,-0.45,-0.08,0.02,9.16,62.5,-2.14
2,-1,3,-0.43,-0.06,0.03,7.45,70.98,-2.81
2,-1,3,-0.42,-0.07,0.02,5.43,76.05,-3.72
2,-1,3,-0.47,-0.07,0,7.26,76.6,-4.39
2,-1,3,-0.47,-0.07,0,9.22,76.17,-5.19
2,-1,3,-0.5,-0.1,-0.04,9.22,76.17,-5.19
2,-1,3,-0.53,-0.1,-0.07,8.12,76.54,-5.86
2,-1,3,-0.56,-0.08,-0.09,5.19,76.54,-6.35
2,-1,3,-0.59,-0.04,-0.11,2.56,75.56,-6.71
2,0,3,-0.64,0.01,-0.11,0.67,72.88,-7.14
2,0,3,-0.64,0.01,-0.11,0.67,72.88,-7.14
2,0,3,-0.67,0.06,-0.14,0.43,68.6,-7.08
2,0,3,-0.73,0.08,-0.15,6.16,61.46,-6.16
2,0,3,-0.79,0.07,-0.16,15.14,53.65,-5.07
2,0,3,-0.79,0.07,-0.16,15.14,53.65,-5.07
2,0,3,-0.85,0.08,-0.16,23.44,47.42,-3.78
2,1,3,-0.88,0.07,-0.14,31.56,40.95,-2.56
2,2,3,-0.91,0.05,-0.12,39,30.58,-0.55
2,3,3,-0.97,0.03,-0.09,44.13,18.86,2.08
2,3,2,-0.97,0.03,-0.09,44.13,18.86,2.08
2,3,2,-1.01,0,-0.05,47.12,11.66,4.94
2,3,2,-1.04,-0.01,-0.01,46.39,7.57,7.63
2,3,2,-1.08,-0.02,0.04,44.56,3.91,9.95
2,3,2,-1.08,-0.02,0.04,44.56,3.91,9.95
2,3,2,-1.12,-0.02,0.09,42.3,0.98,12.08
2,3,2,-1.16,-0.01,0.12,38.27,-0.67,14.34
2,3,2,-1.21,0.01,0.12,31.8,-0.55,16.66
1,3,2,-1.21,0.01,0.12,31.8,-0.55,16.66
1,3,2,-1.22,0.02,0.11,25.63,2.44,18.68
1,3,2,-1.19,0.04,0.09,20.57,6.65,20.57
1,2,2,-1.16,0.05,0.08,16.97,9.28,21.79
0,2,2,-1.16,0.05,0.08,14.28,8.18,22.89
0,2,2,-1.17,0.03,0.07,14.28,8.18,22.89
0,1,2,-1.29,0.01,0.05,10.25,5.07,24.05
0,1,2,-1.46,0,0.02,3.72,4.33,24.41
0,1,2,-1.64,-0.04,0.01,-1.16,0.12,23.13
0,1,2,-1.64,-0.04,0.01,-1.16,0.12,23.13
0,1,2,-1.73,-0.09,0,-2.08,-7.2,19.96
0,1,2,-1.63,-0.22,0.11,0.79,-12.21,15.08
0,1,2,-1.44,-0.29,0.26,-2.38,-15.08,11.05
0,0,2,-1.44,-0.29,0.26,-13,-24.48,8.73
0,0,2,-1.2,-0.27,0.43,-13,-24.48,8.73
0,0,2,-1.17,-0.16,0.46,-25.27,-44.8,6.23
1,0,2,-1.27,-0.12,0.47,-28.14,-67.75,3.66
1,0,2,-1.4,-0.15,0.49,-22.77,-75.87,0.67
1,0,2,-1.4,-0.15,0.49,-17.64,-71.17,-1.89
1,0,1,-1.44,-0.16,0.47,-17.64,-71.17,-1.89
1,0,1,-1.44,-0.12,0.43,-18.01,-64.33,-3.11
1,0,1,-1.37,-0.09,0.37,-18.37,-54.93,-3.85
1,0,1,-1.26,-0.06,0.35,-11.9,-46.57,-4.7
1,0,0,-1.16,-0.02,0.24,-1.65,-43.52,-4.88
1,-1,-2,-1.16,-0.02,0.24,-1.65,-43.52,-4.88
1,-1,-4,-1.11,-0.04,0.11,10.5,-42.11,-5.31
1,-1,-5,-1.04,-0.05,0,19.9,-40.28,-6.47
1,-1,-5,-0.98,0,-0.08,23.86,-40.16,-5.98
1,-1,-5,-0.97,0.05,-0.12,26.98,-46.88,-6.9
1,-1,-6,-0.97,0.05,-0.12,25.63,-55.36,-8.79
1,-1,-6,-1.01,0.08,-0.11,25.63,-55.36,-8.79
1,-1,-6,-0.82,-0.01,-0.17,18.8,-62.5,-10.93
1,-1,-6,-0.65,-0.28,-0.42,3.3,-84.17,-11.47
1,-1,-6,-0.85,-0.27,-0.48,-18.68,-130.43,-7.51
1,-1,-6,-1.22,-0.21,-0.03,-18.98,-144.78,-3.42
1,-1,-6,-1.22,-0.21,-0.03,-5.07,-94.3,2.5
1,-1,-6,-1.24,-0.14,0.36,-5.07,-94.3,2.5
1,-1,-6,-0.87,-0.24,0.59,21.3,-22.34,5.98
1,-1,-6,-0.78,-0.26,0.4,32.29,4.39,10.38
1,-1,-6,-0.66,-0.24,0.17,25.33,21,13.12
1,-1,-6,-0.54,-0.22,-0.03,17.33,36.32,14.28
1,-1,-6,-0.54,-0.22,-0.03,17.33,36.32,14.28
1,-1,-6,-0.48,-0.16,-0.1,18.8,42.05,15.01
1,-1,-6,-0.5,-0.16,-0.1,17.64,41.08,15.44
1,-1,-6,-0.5,-0.13,-0.13,10.62,37.17,14.71
2,-1,-6,-0.52,-0.18,-0.16,12.51,36.74,14.04
2,-1,-6,-0.52,-0.18,-0.16,12.51,36.74,14.04
2,-1,-6,-0.54,-0.14,-0.24,11.29,45.9,13.24
2,-1,-6,-0.54,-0.13,-0.22,11.11,54.02,10.56
3,-1,-6,-0.55,-0.15,-0.16,9.52,54.87,6.77
3,-1,-6,-0.57,-0.16,-0.13,3.66,48.95,3.85
3,0,-5,-0.57,-0.16,-0.13,3.66,48.95,3.85
4,0,-5,-0.62,-0.1,-0.12,-3.91,42.91,1.95
4,0,-4,-0.66,-0.05,-0.11,-8.91,39,-0.67
4,0,-2,-0.71,-0.03,-0.11,-11.11,36.99,-3.54
4,0,-1,-0.75,-0.05,-0.1,-12.27,35.64,-6.16
4,0,-1,-0.75,-0.05,-0.1,-12.27,35.64,-6.16
4,0,0,-0.79,-0.04,-0.1,-14.53,33.2,-8.61
4,0,0,-0.84,-0.04,-0.12,-16.36,29.66,-10.68
4,0,1,-0.89,-0.06,-0.12,-15.75,26.43,-12.82
4,1,1,-0.93,-0.08,-0.1,-14.1,24.17,-14.95
4,1,2,-0.93,-0.08,-0.1,-12.7,23.5,-17.09
4,1,3,-0.96,-0.1,-0.07,-12.7,23.5,-17.09
4,1,3,-1,-0.13,-0.04,-12.21,21.55,-19.35
4,1,3,-1.03,-0.14,-0.03,-13.12,18.01,-21.24
4,1,3,-1.08,-0.14,-0.03,-14.89,13.79,-22.4
4,1,3,-1.08,-0.14,-0.03,-14.89,10.8,-23.25
5,1,3,-1.14,-0.12,-0.04,-14.89,10.8,-23.25
5,1,3,-1.19,-0.11,-0.02,-10.93,10.68,-23.86
5,1,3,-1.23,-0.1,0.01,-5.86,12.57,-23.8
5,1,3,-1.23,-0.1,0.04,-1.22,15.63,-23.07
5,1,3,-1.23,-0.1,0.04,1.16,19.71,-22.09
5,1,3,-1.21,-0.08,0.07,1.16,19.71,-22.09
5,1,3,-1.22,-0.03,0.07,2.62,23.44,-20.2
5,1,3,-1.28,-0.03,0.03,3.91,24.05,-18.25
4,1,3,-1.36,-0.07,-0.02,5.19,21.48,-15.44
4,1,3,-1.36,-0.07,-0.02,5.19,21.48,-15.44
4,1,3,-1.49,-0.06,-0.07,4.88,14.16,-12.57
4,1,3,-1.59,-0.03,-0.04,3.23,7.81,-8.18
4,1,3,-1.62,0.05,0.04,2.56,0.79,-3.85
4,1,3,-1.66,0.13,0.12,2.87,-7.51,-1.04
4,0,3,-1.66,0.13,0.12,2.87,-7.51,-1.04
4,0,3,-1.66,0.09,0.26,7.2,-14.04,1.53
4,0,3,-1.61,0,0.44,13.67,-14.04,4.46
4,0,3,-1.59,-0.02,0.5,5.8,-14.89,5.8
4,0,3,-1.59,-0.02,0.5,5.8,-14.89,5.8
3,0,3,-1.54,-0.04,0.45,-9.03,-16.48,5.13
3,0,3,-1.42,-0.05,0.37,-20.94,-17.76,3.97
3,0,3,-1.36,0,0.2,-26.43,-22.16,4.76
3,0,3,-1.32,0.04,0.1,-24.23,-28.75,5.8
3,0,3,-1.32,0.04,0.1,-24.23,-28.75,5.8
3,0,3,-1.26,0.11,0.05,-19.29,-34.48,5.92
3,0,3,-1.19,0.19,0.03,-13,-42.72,6.1
3,0,3,-1.14,0.2,0.02,-3.17,-51.94,7.14
3,0,3,-1.14,0.2,0.02,10.56,-56.88,8.67
2,0,3,-1.14,0.2,0.02,10.56,-56.88,8.67
2,0,3,-1.11,0.18,0.04,22.58,-57.19,10.07
2,0,3,-1.05,0.16,0.05,29.66,-56.09,10.99
2,0,3,-1.04,0.09,0.06,33.26,-56.15,12.27
2,0,3,-1.04,0.09,0.06,33.26,-56.15,12.27
2,-1,3,-0.9,0.12,0.1,35.77,-56.7,11.47
2,-1,3,-0.68,0.11,-0.04,26.86,-67.14,4.27
1,-1,3,-0.79,0.01,-0.31,-4.03,-101.87,-2.44
1,-1,3,-0.79,0.01,-0.31,-19.29,-135.07,-2.26
1,-1,3,-1.15,-0.01,-0.26,-19.29,-135.07,-2.26
1,0,3,-1.29,0,0.09,-7.51,-119.75,0.61
1,0,3,-1.09,-0.05,0.42,5.62,-53.71,0.61
1,-1,3,-0.78,-0.01,0.46,11.05,11.05,-0.06
1,-1,3,-0.56,-0.04,0.31,12.15,40.77,-2.38
1,-1,3,-0.56,-0.04,0.31,12.15,40.77,-2.38
1,-1,3,-0.55,-0.09,0.15,4.03,42.24,-3.91
1,-1,3,-0.55,-0.08,-0.01,-6.9,43.52,-4.33
1,-1,3,-0.5,-0.03,-0.06,-9.95,55.97,-4.46
1,-1,3,-0.48,0,-0.05,-5.19,62.5,-5.07
1,-1,3,-0.48,0,-0.05,-5.19,62.5,-5.07
1,-1,3,-0.46,-0.02,-0.02,0.24,64.15,-5.98
1,-1,3,-0.5,-0.04,-0.02,3.11,67.32,-5.86
2,-1,3,-0.51,-0.06,-0.01,7.75,76.66,-5.55
2,-1,3,-0.53,-0.08,-0.02,11.66,85.33,-4.82
2,-1,3,-0.53,-0.08,-0.02,11.66,85.33,-4.82
2,-1,3,-0.56,-0.07,-0.04,10.99,90.64,-4.21
2,0,3,-0.61,-0.06,-0.07,7.63,90.7,-3.85
2,0,3,-0.67,-0.02,-0.11,3.23,87.52,-3.17
2,0,3,-0.73,0.06,-0.13,1.46,82.58,-1.65
2,0,3,-0.73,0.06,-0.13,1.46,82.58,-1.65
2,0,3,-0.79,0.13,-0.13,5,78.12,-0.18
2,1,3,-0.83,0.14,-0.11,10.13,71.96,0.85
2,1,3,-0.88,0.14,-0.08,15.5,63.6,2.08
2,1,3,-0.88,0.14,-0.08,21.73,53.28,3.72
2,1,3,-0.9,0.11,-0.08,21.73,53.28,3.72
2,1,3,-0.92,0.07,-0.09,23.8,39.37,5.25
2,1,3,-0.97,0.04,-0.14,23.01,24.78,6.96
2,2,3,-1,0.04,-0.15,21.55,15.32,8.79
2,2,2,-1,0.04,-0.15,21.55,15.32,8.79
1,2,2,-1,0.05,-0.12,20.69,11.11,10.19
1,3,2,-1.03,0.03,-0.08,22.64,6.77,11.96
1,3,2,-1.09,0,-0.02,24.48,2.5,13.79
1,3,1,-1.09,0,-0.02,24.48,2.5,13.79
1,3,1,-1.17,-0.01,0.03,22.4,1.28,15.5
1,3,1,-1.24,-0.03,0.07,17.21,5.25,16.6
1,2,0,-1.25,-0.03,0.1,8.97,14.53,17.15
1,2,-3,-1.25,-0.03,0.1,8.97,14.53,17.15
1,2,-6,-1.24,-0.04,0.11,1.34,18.98,17.7
1,2,-8,-1.23,-0.04,0.09,-5.98,18.86,18.74
1,2,-10,-1.22,-0.03,0.05,-12.39,17.46,19.59
1,2,-12,-1.13,-0.01,0.06,-17.09,16.24,19.1
1,2,-13,-1.13,-0.01,0.06,-17.09,16.24,19.1
1,2,-13,-1.08,0.03,0.05,-20.81,12.45,18.86
1,1,-13,-1.1,0.05,0.04,-23.44,5.98,19.29
1,1,-13,-1.25,0.07,-0.01,-27.1,-3.23,19.71
0,1,-13,-1.45,0.07,-0.07,-28.81,-12.57,19.59
0,1,-13,-1.45,0.07,-0.07,-28.81,-12.57,19.59
0,1,-13,-1.63,0.06,-0.12,-23.32,-20.32,18.98
0,1,-13,-1.61,-0.05,-0.06,-9.16,-23.8,16.05
0,1,-13,-1.5,-0.14,0.08,3.54,-30.09,11.96
0,1,-13,-1.37,-0.18,0.21,7.26,-38.15,9.58
0,1,-14,-1.37,-0.18,0.21,4.88,-49.38,7.26
0,1,-14,-1.24,-0.14,0.33,4.88,-49.38,7.26
1,1,-14,-1.28,-0.13,0.42,0.55,-69.46,5.07
1,1,-14,-1.39,-0.16,0.44,-3.11,-80.51,2.14
1,1,-14,-1.47,-0.19,0.45,-2.32,-80.44,-0.18
1,1,-14,-1.47,-0.19,0.45,-0.92,-76.72,-1.65
1,1,-14,-1.5,-0.17,0.42,-0.92,-76.72,-1.65
1,1,-14,-1.45,-0.13,0.41,1.04,-70.01,-3.11
2,1,-14,-1.33,-0.1,0.42,2.75,-61.28,-4.76
2,0,-15,-1.21,-0.09,0.38,3.72,-55.91,-5.92
2,0,-16,-1.15,-0.05,0.26,1.95,-51.7,-6.41
2,-1,-18,-1.15,-0.05,0.26,1.95,-51.7,-6.41
2,-1,-20,-1.09,-0.02,0.1,2.26,-44.8,-7.51
2,-1,-20,-0.98,-0.02,-0.03,7.51,-35.95,-8.06
2,-1,-20,-0.94,0.02,-0.12,16.6,-32.84,-7.69
2,-1,-20,-0.72,-0.02,-0.23,16.85,-37.54,-9.52
2,-1,-20,-0.72,-0.02,-0.23,-5.98,-62.07,-12.21
2,-1,-20,-0.57,-0.17,-0.55,-5.98,-62.07,-12.21
2,-1,-20,-0.85,-0.21,-0.61,-31.74,-122.99,-10.25
2,-1,-20,-1.21,-0.1,-0.26,-27.4,-148.86,-5.86
2,-1,-20,-1.3,-0.05,0.28,-10.25,-104.92,-2.14
2,-1,-20,-0.9,-0.2,0.52,14.65,-25.63,1.22
2,-1,-20,-0.9,-0.2,0.52,29.85,8.12,5.74
2,-1,-20,-0.79,-0.26,0.46,29.85,8.12,5.74
2,-1,-20,-0.72,-0.28,0.23,21.61,21.12,8.97
2,-1,-20,-0.62,-0.21,0.02,10.93,34.48,12.08
2,-1,-20,-0.58,-0.21,0.02,10.25,41.69,13
2,-1,-20,-0.58,-0.21,0.02,2.14,39.86,12.39
2,-1,-20,-0.56,-0.18,-0.03,2.14,39.86,12.39
3,-1,-20,-0.62,-0.16,-0.09,-2.93,36.38,13
3,-1,-20,-0.61,-0.12,-0.14,-3.85,43.33,12.39
3,-1,-20,-0.61,-0.09,-0.16,-2.2,52.31,11.29
3,-1,-20,-0.61,-0.12,-0.13,1.34,56.4,9.03
3,-1,-20,-0.61,-0.12,-0.13,1.34,56.4,9.03
3,-1,-20,-0.63,-0.13,-0.1,2.56,54.81,6.77
3,-1,-20,-0.66,-0.11,-0.08,0.67,52.43,4.52
3,-1,-20,-0.69,-0.1,-0.08,-2.2,50.84,1.71
3,-1,-19,-0.71,-0.12,-0.1,-6.59,48.95,-1.59
3,-1,-19,-0.71,-0.12,-0.1,-11.96,46.88,-3.97
3,-1,-18,-0.73,-0.12,-0.12,-11.96,46.88,-3.97
4,0,-16,-0.75,-0.1,-0.13,-17.52,45.47,-6.35
4,0,-14,-0.82,-0.07,-0.16,-22.09,43.27,-8.54
4,1,-13,-0.81,-0.05,-0.17,-24.17,44.13,-10.68
4,2,-13,-0.83,-0.05,-0.16,-24.96,43.95,-12.51
4,2,-13,-0.83,-0.05,-0.16,-23.62,39.73,-14.4
4,3,-12,-0.85,-0.07,-0.15,-23.62,39.73,-14.4
4,3,-12,-0.88,-0.08,-0.13,-22.71,33.94,-16.05
4,3,-12,-0.9,-0.09,-0.1,-22.46,28.93,-17.76
4,4,-11,-0.93,-0.11,-0.06,-22.58,24.41,-19.41
4,4,-11,-0.97,-0.11,-0.02,-23.19,20.08,-20.63
4,3,-11,-0.97,-0.11,-0.02,-23.19,20.08,-20.63
5,3,-11,-1,-0.1,0.02,-22.95,16.54,-21.42
5,3,-11,-1.04,-0.08,0,-21.3,13.85,-22.34
5,3,-11,-1.09,-0.08,0.02,-16.36,10.44,-22.46
5,3,-11,-1.12,-0.1,0.03,-9.16,8.91,-22.22
5,3,-11,-1.12,-0.1,0.03,-9.16,8.91,-22.22
5,3,-11,-1.11,-0.07,0.05,-4.76,13.31,-21.79
5,3,-11,-1.06,-0.02,0.06,-2.75,20.39,-20.75
4,3,-11,-1.02,-0.01,0.04,-0.49,23.07,-19.47
4,3,-11,-1.04,-0.08,0,3.17,17.46,-18.07
4,2,-11,-1.04,-0.08,0,3.17,17.46,-18.07
4,2,-11,-1.12,-0.16,-0.03,4.82,9.83,-16.05
4,2,-11,-1.26,-0.2,-0.08,-1.4,4.88,-13.85
4,2,-11,-1.4,-0.17,-0.12,-11.96,1.95,-11.72
4,2,-11,-1.49,-0.05,-0.09,-17.88,-0.85,-9.28
4,2,-11,-1.49,-0.05,-0.09,-15.5,-3.3,-5.8
4,2,-11,-1.63,0.05,0.03,-15.5,-3.3,-5.8
4,2,-11,-1.61,0.05,0.33,-3.72,-3.23,-1.4
4,2,-11,-1.6,0.13,0.55,-4.7,-3.05,1.95
4,2,-11,-1.57,0.21,0.58,-23.86,-8.54,2.56
4,2,-11,-1.57,0.23,0.41,-39.31,-21.3,1.59
4,2,-11,-1.57,0.23,0.41,-39.31,-21.3,1.59
4,2,-11,-1.51,0.17,0.3,-36.38,-30.27,1.04
4,2,-10,-1.44,0.11,0.19,-26.37,-33.57,1.71
4,2,-9,-1.41,0.09,0.05,-22.52,-40.34,2.56
4,2,-9,-1.38,0.17,-0.02,-19.04,-49.32,2.81
4,2,-9,-1.38,0.17,-0.02,-19.04,-49.32,2.81
3,2,-9,-1.36,0.24,0.01,-9.7,-61.89,2.62
3,2,-9,-1.33,0.25,0.08,1.59,-70.68,1.89
3,2,-9,-1.28,0.22,0.11,9.89,-74.28,1.28
2,2,-9,-1.28,0.22,0.11,17.09,-74.22,2.2
2,2,-9,-1.23,0.15,0.1,17.09,-74.22,2.2
2,2,-9,-1.21,0.04,0.13,24.6,-72.02,4.21
2,1,-9,-1.18,0.05,0.17,25.33,-68.54,5.74
2,1,-9,-1.14,0.13,0.13,22.09,-63.78,5.25
2,1,-9,-1.14,0.13,0.13,22.09,-63.78,5.25
2,1,-9,-0.96,0.12,0.1,25.39,-62.32,2.56
1,1,-9,-0.77,0.09,-0.08,16.48,-73.06,-1.46
1,1,-9,-0.83,0.04,-0.36,-6.47,-99.55,-5.25
1,1,-9,-1.21,-0.02,-0.27,-18.31,-130.55,-5.07
1,1,-9,-1.21,-0.02,-0.27,-7.63,-114.44,-1.95
1,1,-9,-1.36,-0.07,0.17,-7.63,-114.44,-1.95
1,1,-9,-1.07,-0.03,0.49,4.76,-42.79,0.79
1,1,-9,-0.75,0.02,0.36,10.93,17.76,0.98
1,1,-9,-0.58,0.02,0.22,14.16,32.84,-0.79
1,1,-9,-0.58,0.02,0.22,7.75,32.78,-1.71
1,1,-8,-0.53,-0.01,0.05,7.75,32.78,-1.71
1,1,-8,-0.5,-0.04,-0.04,4.88,40.28,-1.34
1,1,-8,-0.49,-0.08,-0.05,8.67,47.36,-0.98
1,1,-8,-0.44,-0.09,-0.04,7.87,54.14,-0.61
1,1,-8,-0.44,-0.09,-0.04,7.87,54.14,-0.61
1,1,-8,-0.42,-0.04,-0.02,5.8,58.84,-0.85
1,1,-8,-0.42,0.01,-0.01,6.1,62.74,-1.04
1,1,-8,-0.45,0.04,-0.04,10.62,67.14,-0.79
1,1,-8,-0.5,0.01,-0.05,20.02,71.53,-1.1
1,1,-8,-0.5,0.01,-0.05,20.02,71.53,-1.1
1,1,-8,-0.54,-0.01,-0.07,26.12,79.28,-1.1
1,1,-8,-0.58,0,-0.09,29.79,84.78,-0.92
1,2,-8,-0.61,-0.01,-0.12,28.63,86.12,-0.92
1,2,-8,-0.68,0.03,-0.13,27.95,83.86,-0.06
1,2,-8,-0.68,0.03,-0.13,27.95,83.86,-0.06
1,2,-8,-0.74,0.09,-0.13,28.81,81.79,0.49
1,2,-8,-0.8,0.12,-0.11,31.86,77.45,1.34
1,2,-8,-0.86,0.11,-0.08,37.48,69.82,2.32
1,3,-8,-0.92,0.09,-0.05,42.91,59.27,3.54
1,3,-8,-0.92,0.09,-0.05,42.91,59.27,3.54
1,3,-8,-0.97,0.07,-0.04,45.17,48.77,4.88
0,3,-8,-1,0.04,-0.03,45.53,40.22,6.35
0,3,-8,-1,0.02,-0.02,43.03,33.2,7.45
0,3,-9,-1,0.02,-0.02,43.03,33.2,7.45
0,3,-9,-1,0.01,-0.05,37.96,26.31,8.3
0,3,-9,-1.05,0,-0.07,33.33,19.23,9.34
0,3,-9,-1.08,0.01,-0.06,30.94,15.99,10.38
0,3,-9,-1.08,0.01,-0.06,28.38,15.56,11.11
0,3,-9,-1.13,0.01,-0.05,28.38,15.56,11.11
0,2,-9,-1.18,-0.01,-0.04,25.7,17.03,12.02
0,2,-9,-1.21,-0.04,0,22.71,20.87,13.06
0,2,-9,-1.23,-0.03,0.03,18.68,24.6,13.67
1,2,-9,-1.23,-0.03,0.03,18.68,24.6,13.67
1,2,-9,-1.21,-0.02,0.05,12.57,25.88,13
1,2,-10,-1.17,-0.01,0.04,6.71,24.72,12.39
1,2,-10,-1.14,0.02,0.03,2.44,22.34,12.39
0,2,-10,-1.14,0.02,0.03,-1.22,17.15,13.18
0,2,-9,-1.18,0.04,0.02,-1.22,17.15,13.18
0,1,-9,-1.36,0.02,-0.05,-5.07,8,13.98
0,1,-9,-1.56,-0.02,-0.08,-6.96,-3.78,13.24
0,2,-9,-1.73,-0.09,-0.12,-5.43,-16.17,11.29
0,2,-9,-1.73,-0.09,-0.12,-1.53,-24.66,8.12
0,2,-9,-1.67,-0.18,-0.05,-1.53,-24.66,8.12
0,2,-9,-1.49,-0.21,0.11,-0.43,-29.17,4.82
0,1,-9,-1.36,-0.19,0.23,-1.95,-38.33,3.66
1,1,-9,-1.23,-0.16,0.36,-2.44,-52.43,2.5
1,1,-9,-1.27,-0.21,0.43,-4.21,-73.73,0.85
1,1,-9,-1.27,-0.21,0.43,-4.21,-73.73,0.85
1,1,-9,-1.38,-0.24,0.45,-11.66,-87.28,-1.34
1,1,-9,-1.49,-0.27,0.49,-18.86,-88.56,-2.99
1,1,-10,-1.5,-0.22,0.49,-18.49,-78.8,-3.23
1,1,-10,-1.45,-0.17,0.45,-15.81,-66.77,-3.42
1,1,-10,-1.35,-0.15,0.45,-13.18,-54.69,-4.33
2,1,-10,-1.35,-0.15,0.45,-13.18,-54.69,-4.33
2,1,-11,-1.22,-0.13,0.4,-11.96,-46.51,-5.13
2,0,-13,-1.17,-0.1,0.25,-11.84,-43.95,-4.27
2,0,-17,-1.13,-0.03,0.09,-9.4,-39,-4.46
2,0,-17,-1.04,-0.03,-0.03,-1.46,-32.41,-4.27
2,0,-17,-1.04,-0.03,-0.03,11.72,-31.43,-3.42
2,0,-17,-0.97,0.06,-0.07,11.72,-31.43,-3.42
2,0,-17,-0.71,0.01,-0.23,9.46,-43.95,-6.35
2,0,-17,-0.71,-0.16,-0.65,-25.63,-86.55,-9.16
2,0,-17,-1.19,-0.1,-0.52,-44.56,-143.43,-5.19
2,0,-17,-1.5,-0.02,0.16,-21.91,-126.53,0.92
2,0,-17,-1.5,-0.02,0.16,-21.91,-126.53,0.92
2,0,-17,-1.08,-0.16,0.48,11.23,-38.76,5.07
2,0,-17,-0.89,-0.28,0.58,35.03,11.17,8.97
2,0,-17,-0.73,-0.27,0.33,30.09,28.87,13.12
2,0,-17,-0.73,-0.27,0.33,16.6,39.98,14.71
2,0,-17,-0.65,-0.28,0.12,16.6,39.98,14.71
2,0,-17,-0.54,-0.22,-0.03,7.69,48.52,15.75
2,0,-17,-0.57,-0.15,-0.03,7.51,49.26,15.93
2,0,-17,-0.54,-0.09,-0.01,4.15,49.62,14.59
2,0,-17,-0.54,-0.09,-0.01,4.15,49.62,14.59
2,0,-17,-0.55,-0.1,-0.02,2.69,50.6,13.24
2,0,-17,-0.54,-0.13,-0.11,5.31,54.81,12.33
2,0,-17,-0.55,-0.1,-0.18,3.48,61.65,10.74
2,0,-17,-0.53,-0.09,-0.18,3.42,63.96,8
3,0,-16,-0.53,-0.09,-0.18,3.42,63.96,8
3,0,-16,-0.56,-0.14,-0.15,5.55,57.8,5.49
3,0,-16,-0.59,-0.14,-0.13,3.66,50.29,3.42
3,0,-16,-0.62,-0.1,-0.12,-1.4,44.49,1.04
4,0,-16,-0.66,-0.09,-0.14,-4.64,38.02,-1.77
4,0,-16,-0.66,-0.09,-0.14,-4.64,38.02,-1.77
4,0,-15,-0.69,-0.09,-0.14,-5.8,33.81,-4.15
5,0,-14,-0.71,-0.1,-0.13,-6.41,31.74,-6.71
5,0,-11,-0.74,-0.1,-0.11,-8.79,28.5,-9.03
5,1,-8,-0.76,-0.1,-0.12,-11.47,25.82,-10.8
5,1,-5,-0.76,-0.1,-0.12,-11.23,23.19,-13.12
5,1,-3,-0.79,-0.11,-0.1,-11.23,23.19,-13.12
5,1,-2,-0.83,-0.14,-0.09,-9.58,18.07,-15.56
6,1,-1,-0.87,-0.17,-0.06,-8.67,14.28,-17.64
6,2,-1,-0.92,-0.18,-0.02,-8.61,12.39,-19.65
6,1,-1,-0.93,-0.21,0.04,-8.67,11.66,-21.67
6,1,-1,-0.93,-0.21,0.04,-10.62,11.41,-23.19
6,1,-1,-0.94,-0.22,0.09,-10.62,11.41,-23.19
6,1,-1,-0.99,-0.19,0.12,-13.98,9.16,-23.8
7,1,-1,-1.03,-0.15,0.11,-15.32,7.69,-23.74
7,1,-1,-1.06,-0.14,0.08,-12.27,8.24,-23.19
7,1,-1,-1.06,-0.14,0.08,-5.86,9.58,-21.85
7,1,-1,-1.09,-0.13,0.07,-5.86,9.58,-21.85
7,1,-2,-1.08,-0.08,0.09,-1.71,13.12,-21
7,1,-2,-1.04,-0.04,0.11,0.85,17.21,-19.65
7,0,-2,-1.04,-0.04,0.08,3.66,18.43,-18.01
7,-1,-2,-1.04,-0.04,0.08,5.07,17.46,-16.17
7,-1,-2,-1.04,-0.1,0.03,5.07,17.46,-16.17
7,-1,-2,-1.13,-0.18,-0.04,4.94,11.29,-14.53
7,-1,-2,-1.26,-0.21,-0.09,1.95,4.15,-11.9
7,-1,-2,-1.39,-0.17,-0.11,-4.27,-2.26,-8.73
7,-1,-2,-1.48,-0.04,-0.04,-10.01,-8.79,-4.94
7,-1,-2,-1.48,-0.04,-0.04,-10.01,-8.79,-4.94
6,-1,-2,-1.58,0.13,0.08,-12.82,-19.1,-1.71
6,-1,-2,-1.71,0.18,0.26,-8.24,-30.52,2.2
6,-1,-2,-1.67,0.16,0.5,2.26,-33.2,5.68
6,-1,-2,-1.6,0.14,0.62,0,-32.1,7.87
6,-1,-2,-1.6,0.14,0.62,-8.42,-37.41,8.97
6,-1,-2,-1.57,0.15,0.57,-8.42,-37.41,8.97
6,-1,-2,-1.46,0.11,0.46,-9.64,-40.28,10.38
6,-1,-2,-1.39,0.07,0.36,-5.31,-44.01,11.05
6,-1,-1,-1.39,0.03,0.24,-4.33,-52.12,11.47
6,-1,-1,-1.39,0.03,0.24,-5.37,-57.01,11.96
5,-1,-1,-1.35,0.11,0.15,-5.37,-57.01,11.96
4,-1,0,-1.31,0.23,0.12,1.83,-63.84,12.33
4,-1,0,-1.29,0.29,0.12,15.44,-70.37,12.21
4,-1,0,-1.26,0.33,0.14,32.17,-73.55,11.35
4,-1,0,-1.26,0.33,0.14,44.01,-72.75,9.89
4,-1,0,-1.21,0.27,0.17,44.01,-72.75,9.89
4,-1,0,-1.17,0.13,0.19,50.96,-67.2,11.72
4,-2,0,-0.98,0.37,0.19,54.08,-60.55,10.44
4,-2,0,-0.73,0.36,-0.15,47.24,-76.84,0.67
4,-2,0,-0.73,0.36,-0.15,47.24,-76.84,0.67
3,-1,0,-1.13,0.13,-0.41,24.11,-139.83,-4.64
3,-1,0,-1.81,-0.04,0.22,28.14,-167.48,3.91
3,-1,0,-1.35,-0.11,0.55,51.51,-78.55,12.51
3,-1,0,-1.01,-0.02,0.4,62.13,-5.74,11.29
3,-2,0,-1.01,-0.02,0.4,62.13,-5.74,11.29
3,-2,0,-0.84,-0.04,0.14,51.88,7.32,5.74
3,-2,0,-0.73,-0.08,-0.06,38.15,13.55,2.5
3,-2,0,-0.7,-0.08,-0.11,35.16,17.94,2.5
3,-2,0,-0.7,-0.08,-0.11,34.06,25.57,2.32
3,-2,0,-0.62,-0.08,-0.13,34.06,25.57,2.32
3,-2,0,-0.58,-0.06,-0.1,33.57,35.1,1.95
3,-1,0,-0.55,-0.04,-0.04,38.57,42.85,1.22
3,-1,0,-0.55,-0.02,-0.04,46.26,49.5,0.79
3,-1,0,-0.55,-0.02,-0.04,55.91,58.41,-0.24
3,-1,0,-0.57,-0.07,-0.02,55.91,58.41,-0.24
4,-1,0,-0.59,-0.06,-0.02,61.95,71.66,-1.53
4,-1,0,-0.59,-0.09,-0.02,65.61,79.65,-2.69
4,-1,0,-0.61,-0.1,-0.06,62.38,82.46,-4.39
4,-1,0,-0.65,-0.11,-0.1,55.05,80.99,-6.9
4,-1,0,-0.65,-0.11,-0.1,55.05,80.99,-6.9
4,-1,0,-0.69,-0.08,-0.13,48.83,78.19,-9.16
4,0,0,-0.72,-0.04,-0.17,44.19,75.62,-11.35
4,0,1,-0.76,-0.05,-0.18,43.58,73.18,-13
4,0,1,-0.79,-0.02,-0.17,47.36,71.23,-13.73
4,0,1,-0.79,-0.02,-0.17,47.36,71.23,-13.73
4,0,1,-0.8,0,-0.14,51.82,70.74,-14.59
4,0,1,-0.81,-0.01,-0.12,54.32,67.75,-15.44
4,1,1,-0.8,-0.03,-0.1,55.48,59.57,-15.93
4,1,1,-0.81,-0.05,-0.11,54.26,47.3,-15.75
4,1,2,-0.81,-0.05,-0.11,54.26,47.3,-15.75
4,1,2,-0.82,-0.07,-0.13,51.15,34,-14.65
4,2,3,-0.88,-0.07,-0.15,48.28,21.36,-12.39
4,2,3,-0.91,-0.06,-0.16,47.06,14.04,-9.52
4,2,4,-0.91,-0.06,-0.16,50.35,11.72,-6.65
4,3,5,-0.97,-0.04,-0.12,50.35,11.72,-6.65
4,4,5,-0.99,-0.06,-0.08,55.3,11.66,-4.09
4,4,6,-1.01,-0.1,-0.03,57.01,13.73,-2.32
4,4,6,-1.03,-0.14,0.02,54.5,15.44,-0.06
4,3,6,-1.03,-0.14,0.02,48.89,16.24,2.56
4,3,6,-1.06,-0.16,0.07,48.89,16.24,2.56
4,3,6,-1.08,-0.15,0.1,41.2,17.76,4.7
4,3,6,-1.09,-0.15,0.11,30.76,19.96,6.59
5,3,6,-1.09,-0.14,0.1,20.63,19.47,8.54
5,3,6,-1.09,-0.14,0.1,20.63,19.47,8.54
5,3,5,-1.06,-0.11,0.1,9.89,17.21,10.13
5,3,5,-1.05,-0.09,0.09,-0.49,14.1,11.84
5,3,5,-1.07,-0.06,0.07,-9.64,9.7,13.55
5,3,5,-1.07,-0.06,0.07,-9.64,9.7,13.55
5,2,5,-1.18,0.01,0.03,-17.4,3.6,15.81
5,2,5,-1.39,0.08,-0.05,-21.91,-5.62,18.25
5,2,5,-1.69,0.15,-0.18,-19.84,-17.09,20.14
4,2,5,-1.88,0.13,-0.25,-6.41,-27.34,20.57
4,2,5,-1.88,0.13,-0.25,-6.41,-27.34,20.57
4,2,5,-1.84,0.01,-0.17,18.01,-36.68,17.15
4,2,5,-1.64,-0.12,0.04,41.38,-46.39,13.49
4,2,5,-1.46,-0.26,0.33,48.03,-55.3,12.63
4,2,5,-1.46,-0.26,0.33,42.18,-76.78,9.28
4,2,4,-1.3,-0.14,0.55,42.18,-76.78,9.28
4,2,4,-1.39,-0.14,0.7,34.06,-105.65,5.98
4,2,4,-1.49,-0.14,0.68,27.22,-109.92,4.09
4,2,4,-1.53,-0.06,0.58,30.15,-96.19,4.27
4,2,3,-1.53,-0.06,0.58,30.15,-96.19,4.27
4,2,3,-1.51,-0.07,0.46,38.27,-75.87,4.82
4,2,3,-1.36,-0.09,0.36,45.96,-54.93,3.11
4,2,2,-1.32,-0.1,0.22,49.26,-48.22,1.28
4,2,2,-1.32,-0.1,0.22,57.07,-42.85,-0.06
4,2,1,-1.27,-0.07,0.07,57.07,-42.85,-0.06
4,2,1,-1.17,-0.07,-0.02,69.15,-32.78,-0.12
4,2,1,-1.12,-0.01,-0.06,84.47,-24.6,-0.18
4,2,1,-0.93,0.1,-0.05,90.39,-27.59,-3.66
4,2,1,-0.93,0.1,-0.05,72.75,-47.49,-9.64
4,2,1,-0.65,-0.11,-0.39,72.75,-47.49,-9.64
4,2,1,-0.87,-0.27,-0.72,43.95,-101.2,-6.71
4,2,1,-1.29,-0.32,-0.24,43.88,-143.13,-0.12
4,2,1,-1.39,-0.24,0.31,56.58,-98.94,9.52
4,2,1,-1.39,-0.24,0.31,79.28,-13.24,14.71
4,2,1,-1.01,-0.33,0.64,79.28,-13.24,14.71
4,2,1,-0.82,-0.35,0.55,85.27,20.81,17.4
4,2,1,-0.65,-0.38,0.25,69.82,33.51,19.35
4,2,1,-0.6,-0.27,0.02,55.18,46.39,21.48
4,2,1,-0.6,-0.27,0.02,55.18,46.39,21.48
4,2,1,-0.51,-0.22,0.03,46.63,53.59,18.43
4,2,1,-0.52,-0.19,-0.08,38.88,51.57,16.36
4,2,1,-0.5,-0.19,-0.13,37.96,51.03,15.81
4,2,1,-0.5,-0.19,-0.13,36.19,57.31,14.16
4,2,1,-0.53,-0.07,-0.2,36.19,57.31,14.16
4,2,1,-0.5,-0.04,-0.14,40.95,64.58,10.93
4,2,1,-0.53,-0.11,-0.07,51.76,65.43,7.02
4,2,1,-0.56,-0.16,-0.03,55.6,64.88,3.3
4,2,1,-0.56,-0.16,-0.03,55.6,64.88,3.3
4,2,2,-0.61,-0.17,-0.06,51.64,63.11,0.92
5,2,2,-0.65,-0.18,-0.07,47.42,58.9,-1.89
5,2,2,-0.7,-0.21,-0.09,41.93,53.77,-4.76
5,2,2,-0.7,-0.21,-0.09,35.4,50.9,-7.69
5,2,2,-0.71,-0.22,-0.1,35.4,50.9,-7.69
5,2,2,-0.74,-0.21,-0.09,28.2,49.99,-10.01
5,2,2,-0.76,-0.16,-0.11,21.24,49.01,-11.96
6,3,3,-0.77,-0.15,-0.11,18.31,49.01,-14.1
6,3,3,-0.77,-0.15,-0.11,20.02,44.74,-15.99
6,4,4,-0.81,-0.15,-0.11,20.02,44.74,-15.99
6,4,4,-0.85,-0.17,-0.11,23.19,39.73,-18.19
6,5,5,-0.9,-0.18,-0.11,25.33,35.71,-20.02
6,5,5,-0.94,-0.18,-0.09,27.28,33.57,-21.97
7,6,6,-0.94,-0.18,-0.09,29.11,32.96,-24.05
7,5,6,-0.95,-0.19,-0.03,29.11,32.96,-24.05
7,5,7,-0.94,-0.21,-0.02,29.36,30.94,-25.63
8,5,7,-0.96,-0.22,0.03,31.49,25.02,-26.31
9,5,6,-0.97,-0.21,0.08,35.58,21.91,-26.98
10,5,6,-0.97,-0.21,0.08,36.56,21.48,-27.77
10,5,6,-0.97,-0.22,0.09,36.56,21.48,-27.77
10,5,6,-0.99,-0.22,0.08,36.5,20.57,-28.32
10,5,6,-0.99,-0.22,0.06,35.52,19.23,-28.32
11,5,6,-0.99,-0.2,0.03,33.08,19.17,-27.59
11,5,6,-0.99,-0.2,0.03,33.08,19.17,-27.59
11,5,6,-1,-0.18,0,33.51,19.41,-26.67
11,5,6,-1.04,-0.18,-0.03,35.58,19.59,-25.63
11,5,6,-1.07,-0.21,-0.02,38.57,18.92,-24.11
11,5,6,-1.07,-0.21,-0.02,40.65,14.53,-21.85
11,5,6,-1.16,-0.27,-0.04,40.65,14.53,-21.85
11,5,6,-1.29,-0.29,-0.04,38.27,9.89,-18.68
11,4,6,-1.39,-0.23,0,30.76,3.66,-15.44
11,4,6,-1.53,-0.12,0.07,18.74,-6.65,-12.15
11,4,6,-1.53,-0.12,0.07,18.74,-6.65,-12.15
11,4,6,-1.69,-0.02,0.27,14.16,-16.05,-6.35
11,4,6,-1.74,0.04,0.54,18.19,-18.8,-0.37
11,4,6,-1.72,0.15,0.59,10.99,-22.83,2.26
11,4,6,-1.67,0.21,0.6,-2.56,-34.85,0.49
11,4,6,-1.67,0.21,0.6,-2.56,-34.85,0.49
11,4,6,-1.6,0.21,0.5,-7.14,-43.27,2.75
11,4,6,-1.39,0.18,0.42,6.84,-44.43,5.31
11,3,6,-1.31,0.14,0.37,21.79,-51.39,6.9
11,3,6,-1.31,0.14,0.37,23.68,-61.71,7.02
10,3,6,-1.27,0.12,0.22,23.68,-61.71,7.02
10,3,6,-1.27,0.2,0.09,27.47,-70.31,7.39
10,3,6,-1.25,0.28,0.06,41.75,-73.67,8
10,3,6,-1.17,0.26,0.08,57.62,-72.14,8.06
9,3,6,-1.17,0.26,0.08,57.62,-72.14,8.06
9,3,6,-1.1,0.24,0.1,68.42,-73,8.54
9,3,6,-1.11,0.19,0.13,77.45,-77.51,9.83
8,3,6,-1.12,0.12,0.2,86.49,-77.94,11.05
8,3,6,-1.12,0.12,0.2,86.49,-77.94,11.05
8,3,6,-1.08,0.11,0.19,93.14,-72.75,14.1
8,3,6,-0.89,0.23,0.19,97.66,-67.81,12.39
7,2,6,-0.67,0.2,-0.17,81.12,-85.82,3.05
7,3,7,-1.1,-0.03,-0.49,47.91,-144.59,-1.46
7,3,7,-1.1,-0.03,-0.49,47.91,-144.59,-1.46
7,3,7,-1.68,-0.17,0.04,50.23,-174.07,7.26
7,3,7,-1.3,-0.11,0.44,74.95,-89.72,15.69
7,3,7,-0.92,-0.06,0.42,89.23,-4.15,14.59
7,3,7,-0.92,-0.06,0.42,78.67,16.17,11.05
7,3,7,-0.71,-0.11,0.22,78.67,16.17,11.05
7,2,7,-0.73,-0.12,0.02,67.14,15.44,9.89
7,2,7,-0.68,-0.08,-0.14,57.43,23.44,10.19
7,2,7,-0.63,-0.06,-0.12,52.73,36.19,8.97
7,2,7,-0.63,-0.06,-0.12,52.73,36.19,8.97
7,3,7,-0.59,0.01,-0.06,54.87,44.98,7.81
7,3,7,-0.58,0.02,-0.01,60.18,51.88,6.29
7,3,7,-0.66,0.04,-0.04,65.55,59.94,4.58
7,3,7,-0.66,0.04,-0.04,73.18,75.01,2.93
7,3,7,-0.64,0,-0.02,73.18,75.01,2.93
7,2,7,-0.63,-0.03,-0.02,79.83,88.32,1.53
7,2,7,-0.64,-0.07,-0.05,81.97,94.97,-0.24
7,3,7,-0.65,-0.08,-0.09,74.77,95.89,-2.26
7,3,7,-0.65,-0.08,-0.09,74.77,95.89,-2.26
7,3,7,-0.67,-0.08,-0.13,65.61,91.61,-4.52
7,3,7,-0.71,-0.07,-0.16,60.49,85.08,-6.1
7,3,7,-0.74,-0.04,-0.19,60.42,79.47,-7.08
6,3,7,-0.78,-0.02,-0.2,62.81,74.65,-7.93
6,3,7,-0.78,-0.02,-0.2,62.81,74.65,-7.93
6,3,7,-0.82,-0.03,-0.18,65,69.52,-8.85
6,3,7,-0.84,-0.06,-0.17,68.42,69.4,-9.22
6,4,7,-0.84,-0.08,-0.17,71.9,65.8,-9.16
6,4,7,-0.84,-0.08,-0.17,70.62,54.57,-9.4
6,4,8,-0.86,-0.11,-0.17,70.62,54.57,-9.4
6,5,8,-0.89,-0.11,-0.21,64.88,40.71,-8.91
6,6,9,-0.93,-0.11,-0.25,61.58,28.08,-7.87
6,7,9,-1,-0.11,-0.21,65.25,20.87,-6.04
6,7,10,-1,-0.11,-0.21,69.4,22.16,-3.78
6,8,10,-1.03,-0.13,-0.16,69.4,22.16,-3.78
6,8,11,-1.06,-0.16,-0.07,71.96,25.82,-1.71
6,8,11,-1.08,-0.18,0.01,69.03,26.67,0.37
7,8,11,-1.1,-0.17,0.04,59.14,25.7,2.14
7,8,11,-1.1,-0.17,0.04,59.14,25.7,2.14
7,8,11,-1.12,-0.14,0.04,47.91,23.01,3.48
7,8,11,-1.12,-0.13,0.01,39.79,19.35,4.39
7,8,11,-1.13,-0.11,-0.01,35.03,15.32,5.62
7,8,11,-1.13,-0.11,-0.01,31.07,11.05,6.9
7,8,11,-1.13,-0.07,-0.03,31.07,11.05,6.9
7,7,11,-1.1,-0.05,-0.03,28.93,6.9,8.42
7,7,11,-1.07,-0.04,-0.01,29.36,0.92,10.74
7,6,10,-1.04,-0.04,0.05,28.69,-5.98,13.06
6,6,10,-1.04,-0.04,0.05,28.69,-5.98,13.06
6,5,10,-1.08,-0.05,0.12,23.32,-12.63,15.2
6,5,10,-1.19,-0.03,0.18,12.33,-17.88,17.46
6,5,10,-1.39,-0.04,0.21,1.16,-23.5,19.9
6,5,10,-1.39,-0.04,0.21,-6.84,-25.76,21.67
6,5,10,-1.61,-0.07,0.23,-6.84,-25.76,21.67
5,5,10,-1.68,-0.11,0.28,-9.22,-25.27,21.67
5,5,10,-1.66,-0.16,0.33,-8,-23.5,18.68
5,5,10,-1.41,-0.25,0.4,-4.46,-24.78,13.55
5,4,10,-1.41,-0.25,0.4,-2.87,-45.1,11.47
5,4,9,-1.35,-0.27,0.4,-2.87,-45.1,11.47
5,4,8,-1.32,-0.22,0.34,-0.79,-66.65,10.01
5,4,7,-1.36,-0.17,0.32,2.26,-77.03,7.26
5,4,7,-1.37,-0.21,0.32,11.23,-75.74,5.43
5,3,6,-1.37,-0.21,0.32,24.66,-66.96,5.07
5,3,4,-1.31,-0.21,0.32,24.66,-66.96,5.07
5,2,2,-1.27,-0.19,0.29,32.04,-59.2,4.33
5,1,-7,-1.17,-0.13,0.25,35.28,-54.26,1.59
5,1,-12,-1.14,-0.06,0.2,37.17,-53.59,-1.1
5,0,-14,-1.14,-0.06,0.2,37.17,-53.59,-1.1
5,0,-15,-1.14,-0.07,0.13,41.2,-50.96,-3.48
5,0,-16,-1.11,-0.07,0.09,43.15,-42.79,-5.37
5,0,-16,-1.05,-0.07,-0.02,39.18,-34.12,-6.9
5,0,-16,-1.04,-0.05,-0.13,37.48,-35.28,-6.9
5,0,-16,-1.04,-0.05,-0.13,39.61,-39.98,-7.69
5,0,-16,-1.03,0.03,-0.19,39.61,-39.98,-7.69
5,0,-16,-0.83,0.04,-0.18,39.43,-47.73,-10.93
5,0,-16,-0.59,-0.21,-0.45,22.58,-67.02,-13.06
5,0,-16,-0.77,-0.34,-0.65,5.13,-127.56,-8.73
5,0,-16,-1.16,-0.16,-0.3,7.81,-164.98,-2.56
5,0,-16,-1.16,-0.16,-0.3,7.81,-164.98,-2.56
5,0,-16,-1.34,-0.21,0.32,24.6,-124.08,3.17
5,0,-16,-0.97,-0.28,0.71,46.33,-38.64,8.79
5,0,-16,-0.76,-0.28,0.63,61.1,16.72,12.51
5,0,-16,-0.73,-0.3,0.34,48.1,26.86,14.95
5,0,-16,-0.73,-0.3,0.34,48.1,26.86,14.95
5,0,-16,-0.6,-0.28,0.12,30.52,38.21,14.77
5,0,-16,-0.58,-0.27,-0.07,21.06,44.74,14.22
5,0,-16,-0.57,-0.25,-0.21,11.72,49.44,14.34
6,0,-16,-0.57,-0.25,-0.21,5,52.12,13.98
6,0,-16,-0.56,-0.18,-0.26,5,52.12,13.98
6,0,-16,-0.52,-0.15,-0.2,7.26,51.82,12.57
6,0,-16,-0.55,-0.17,-0.13,11.66,48.71,10.44
6,0,-16,-0.59,-0.15,-0.13,11.29,49.87,8.48
6,0,-16,-0.59,-0.15,-0.13,9.34,55.54,6.35
6,0,-16,-0.6,-0.12,-0.11,9.34,55.54,6.35
6,0,-16,-0.64,-0.12,-0.09,8.79,57.31,3.54
6,0,-16,-0.68,-0.15,-0.1,5.13,56.46,0.31
6,0,-15,-0.73,-0.14,-0.11,-2.08,54.93,-2.5
6,0,-13,-0.73,-0.14,-0.11,-9.34,54.08,-4.52
6,0,-12,-0.81,-0.11,-0.14,-9.34,54.08,-4.52
6,0,-10,-0.81,-0.08,-0.14,-14.16,57.31,-6.65
6,1,-10,-0.82,-0.07,-0.14,-14.47,59.08,-8.79
6,1,-9,-0.84,-0.09,-0.13,-10.56,55.36,-10.86
6,2,-9,-0.87,-0.13,-0.12,-8.42,49.38,-12.94
6,4,-8,-0.87,-0.13,-0.12,-8.42,49.38,-12.94
6,5,-8,-0.89,-0.16,-0.11,-9.46,44.31,-15.38
6,5,-8,-0.91,-0.17,-0.1,-13.67,39.92,-18.07
7,5,-7,-0.93,-0.17,-0.1,-19.71,34.97,-20.87
7,5,-7,-0.95,-0.16,-0.1,-23.01,28.56,-23.19
7,5,-7,-0.95,-0.16,-0.1,-22.34,22.09,-24.66
7,5,-7,-0.98,-0.15,-0.08,-22.34,22.09,-24.66
7,5,-7,-1.02,-0.16,-0.08,-20.02,17.21,-25.82
7,5,-7,-1.07,-0.15,-0.04,-17.4,13.49,-26.79
7,5,-6,-1.08,-0.12,0,-15.08,14.16,-26.98
7,5,-6,-1.07,-0.06,0.04,-13.18,15.93,-26.55
7,5,-6,-1.07,-0.06,0.04,-13.18,15.93,-26.55
7,5,-7,-1.06,-0.02,0.06,-9.46,15.14,-25.09
7,5,-7,-1.03,-0.06,0.08,-5.13,11.72,-23.07
7,5,-7,-1.1,-0.13,0.06,-3.85,3.85,-21.18
7,4,-7,-1.2,-0.19,0.03,-8.54,-1.04,-18.49
7,4,-7,-1.2,-0.19,0.03,-8.54,-1.04,-18.49
7,4,-7,-1.3,-0.18,0,-18.49,-3.66,-15.44
7,4,-7,-1.49,-0.12,0,-28.08,-3.66,-11.84
7,4,-7,-1.62,-0.1,0.16,-25.94,1.22,-5.74
7,3,-7,-1.65,-0.08,0.39,-17.94,7.57,0.18
7,3,-7,-1.65,-0.08,0.39,-26.06,6.77,5
7,3,-7,-1.69,0.08,0.54,-26.06,6.77,5
7,3,-7,-1.6,0.23,0.47,-44.13,1.65,5.86
6,3,-7,-1.53,0.31,0.33,-51.94,-13.85,4.76
6,3,-7,-1.46,0.32,0.17,-40.28,-32.1,5.13
6,3,-7,-1.46,0.32,0.17,-40.28,-32.1,5.13
6,3,-7,-1.39,0.23,0.11,-21.73,-42.66,6.47
6,3,-7,-1.35,0.18,0.05,-12.33,-49.19,7.51
6,3,-7,-1.34,0.22,0.01,-8.73,-59.14,9.16
6,3,-7,-1.39,0.23,0.06,0.67,-73,9.64
6,3,-7,-1.39,0.23,0.06,0.67,-73,9.64
6,3,-7,-1.38,0.24,0.13,11.6,-79.9,10.19
4,3,-6,-1.32,0.24,0.22,15.26,-81.79,9.7
3,3,-6,-1.28,0.23,0.26,18.37,-84.96,9.28
1,3,-6,-1.28,0.23,0.26,22.52,-84.47,11.29
0,3,-6,-1.22,0.05,0.26,22.52,-84.47,11.29
0,2,-6,-1.27,0.13,0.26,28.5,-80.2,16.54
0,2,-6,-1.22,0.22,0.17,32.47,-70.92,16.3
-1,2,-6,-1.02,0.19,0.15,44.07,-62.93,13.61
-1,2,-6,-1.02,0.19,0.15,44.07,-62.93,13.61
-1,2,-5,-0.77,0.15,0.01,44.62,-67.38,7.75
-1,2,-5,-0.86,0.08,-0.27,18.62,-92.59,1.95
-1,2,-5,-1.3,0.01,-0.24,-6.59,-131.47,0.24
-1,2,-6,-1.58,-0.14,0.27,-10.93,-123.05,3.6
-1,2,-6,-1.58,-0.14,0.27,-10.93,-123.05,3.6
-1,2,-6,-1.04,-0.02,0.48,3.05,-35.34,7.69
-1,2,-6,-0.75,0.03,0.34,18.19,22.4,7.51
-1,2,-6,-0.65,0.03,0.15,16.54,33.39,5.98
-1,2,-6,-0.6,0,0.02,12.63,39.18,4.27
-1,2,-5,-0.6,0,0.02,12.63,39.18,4.27
-1,2,-5,-0.58,-0.01,-0.06,11.96,48.95,4.46
-1,2,-5,-0.57,0.02,-0.13,16.36,58.41,5.13
-1,2,-5,-0.52,-0.02,-0.11,24.78,68.54,4.46
-1,2,-5,-0.46,-0.02,-0.05,31.25,75.81,3.3
-1,2,-5,-0.46,-0.02,-0.05,31.25,75.81,3.3
-1,2,-5,-0.45,-0.05,-0.02,33.81,81.24,2.81
-1,2,-5,-0.44,-0.09,0,34.79,85.57,1.65
-1,2,-5,-0.46,-0.1,0,32.47,87.1,1.16
-1,2,-5,-0.5,-0.09,-0.04,25.7,87.34,0.85
-1,2,-5,-0.5,-0.09,-0.04,25.7,87.34,0.85
-1,2,-5,-0.55,-0.08,-0.1,17.52,84.72,0.18
0,2,-5,-0.62,-0.07,-0.16,10.5,78.12,0.06
0,2,-5,-0.67,-0.02,-0.19,7.45,72.2,0.49
0,2,-5,-0.73,0.04,-0.19,7.26,69.09,0.61
0,2,-5,-0.73,0.04,-0.19,7.26,69.09,0.61
0,2,-5,-0.76,0.07,-0.17,8.42,66.1,0.98
0,2,-5,-0.79,0.08,-0.14,13.73,59.69,1.53
0,3,-5,-0.82,0.07,-0.11,20.57,47.97,3.23
0,3,-5,-0.82,0.07,-0.11,20.57,47.97,3.23
0,3,-5,-0.86,0.05,-0.09,26.06,32.59,5.31
-1,3,-5,-0.92,0.06,-0.1,29.05,18.74,7.87
-1,3,-5,-0.94,0.07,-0.08,31.86,10.25,10.25
-1,3,-5,-0.96,0.06,-0.04,32.96,5.49,12.33
-1,3,-5,-0.96,0.06,-0.04,32.96,5.49,12.33
-1,3,-5,-0.98,0.04,0.01,34.12,1.89,14.65
-1,3,-5,-1.02,0,0.06,34.79,1.34,17.09
-1,3,-5,-1.07,-0.03,0.11,33.33,3.42,19.29
-1,3,-5,-1.07,-0.03,0.11,27.95,8.3,21
-1,3,-5,-1.15,-0.05,0.13,27.95,8.3,21
-1,3,-5,-1.16,-0.05,0.13,18.19,17.21,21.79
-1,2,-5,-1.16,-0.03,0.1,7.08,23.38,22.64
-1,2,-6,-1.14,-0.01,0.04,-1.04,24.72,22.95
-1,2,-6,-1.14,-0.01,0.04,-4.58,23.5,22.64
-1,2,-6,-1.13,0.03,-0.01,-4.58,23.5,22.64
-1,2,-6,-1.1,0.06,-0.03,-5.07,20.2,21.91
-1,2,-6,-1.08,0.07,-0.05,-4.88,15.38,21.36
-1,2,-6,-1.1,0.08,-0.05,-4.03,9.64,20.51
-1,2,-6,-1.1,0.08,-0.05,-4.52,2.01,19.35
-1,2,-6,-1.14,0.09,-0.03,-4.52,2.01,19.35
-1,2,-6,-1.32,0.06,-0.06,-5.13,-8.24,18.92
-1,2,-6,-1.44,0,-0.07,-3.66,-18.86,17.03
-1,2,-6,-1.48,-0.09,-0.05,-2.44,-26.92,13.43
-1,2,-6,-1.44,-0.16,0.04,-1.16,-32.1,9.09
-1,2,-6,-1.44,-0.16,0.04,-1.16,-32.1,9.09
-1,1,-6,-1.35,-0.19,0.13,-0.31,-36.25,5.37
-1,1,-6,-1.28,-0.11,0.21,-2.01,-43.76,2.5
-1,1,-6,-1.33,-0.09,0.24,-6.29,-56.27,0.55
-1,1,-6,-1.46,-0.12,0.25,-8.06,-69.21,-1.83
-1,1,-6,-1.46,-0.12,0.25,-10.44,-78.67,-3.66
-1,1,-6,-1.56,-0.19,0.29,-10.44,-78.67,-3.66
-1,1,-6,-1.64,-0.23,0.32,-16.91,-84.9,-5.25
0,1,-6,-1.65,-0.19,0.35,-27.22,-87.95,-6.96
1,1,-6,-1.6,-0.13,0.37,-30.64,-85.57,-7.75
1,1,-6,-1.49,-0.1,0.38,-20.87,-77.7,-8.3
1,0,-7,-1.49,-0.1,0.38,-13.31,-68.3,-9.09
1,0,-8,-1.36,-0.11,0.33,-13.31,-68.3,-9.09
2,-1,-9,-1.24,-0.13,0.24,-11.41,-60.18,-8.85
2,-1,-10,-1.15,-0.17,0.15,-12.7,-53.34,-9.28
2,-1,-10,-1.09,-0.2,0.04,-16.78,-47,-7.93
2,-1,-10,-1.03,-0.11,-0.01,-16.72,-41.69,-5.55
3,-1,-10,-1.03,-0.11,-0.01,-13.06,-37.9,-6.04
3,-1,-10,-0.77,-0.08,-0.11,-13.06,-37.9,-6.04
3,-1,-10,-0.53,-0.22,-0.41,-19.53,-55.66,-6.59
3,-1,-10,-0.71,-0.33,-0.72,-45.72,-112.18,-3.85
3,-1,-10,-1.16,-0.08,-0.44,-57.19,-157.59,-0.12
3,-1,-10,-1.41,0.03,0.16,-46.45,-124.33,2.75
3,-1,-10,-1.41,0.03,0.16,-19.84,-35.77,4.64
3,-1,-10,-0.95,-0.09,0.44,-19.84,-35.77,4.64
3,-1,-10,-0.81,-0.22,0.47,2.5,15.26,6.04
3,-1,-10,-0.74,-0.21,0.3,-5.62,26.43,9.03
3,-1,-10,-0.66,-0.2,0.1,-19.65,37.05,10.93
3,-1,-10,-0.57,-0.13,-0.04,-28.08,48.71,12.51
3,-1,-10,-0.57,-0.13,-0.04,-28.08,48.71,12.51
3,-1,-10,-0.62,-0.1,-0.01,-30.52,53.41,13.67
3,-1,-10,-0.66,-0.05,-0.02,-33.94,56.95,12.27
3,-1,-10,-0.66,-0.05,-0.06,-34.24,65.06,12.51
3,-1,-10,-0.62,-0.1,-0.08,-29.05,72.08,13.12
3,-1,-10,-0.62,-0.1,-0.08,-29.05,72.08,13.12
3,-1,-10,-0.66,-0.07,-0.16,-29.36,75.2,12.27
3,-1,-10,-0.68,-0.05,-0.17,-30.03,75.13,10.99
3,-1,-10,-0.69,-0.05,-0.1,-28.14,72.69,9.28
3,-1,-10,-0.71,-0.03,-0.08,-28.69,67.32,7.57
3,-1,-10,-0.71,-0.03,-0.08,-31.62,62.32,5.86
3,-1,-10,-0.77,0,-0.1,-31.62,62.32,5.86
3,-1,-10,-0.74,0.01,-0.12,-32.1,61.71,4.21
3,0,-10,-0.71,0,-0.13,-32.41,58.65,2.38
3,0,-9,-0.7,-0.01,-0.14,-34.36,51.21,0.61
3,1,-9,-0.71,-0.01,-0.16,-36.68,41.93,-0.85
3,1,-9,-0.71,-0.01,-0.16,-36.68,41.93,-0.85
3,2,-9,-0.72,0.01,-0.17,-38.27,33.69,-2.2
3,2,-9,-0.73,-0.01,-0.17,-38.7,27.1,-3.54
2,2,-9,-0.73,0.02,-0.15,-39,21.91,-4.15
2,3,-9,-0.75,0.01,-0.16,-34.42,18.92,-5.37
1,3,-9,-0.75,0.01,-0.16,-28.81,12.88,-5.86
1,4,-9,-0.79,-0.01,-0.11,-28.81,12.88,-5.86
1,4,-9,-0.78,-0.04,-0.06,-23.44,13.49,-6.65
1,4,-9,-0.81,-0.05,-0.03,-21.42,11.78,-6.96
1,4,-9,-0.85,-0.04,-0.02,-19.65,7.87,-7.69
1,4,-9,-0.85,-0.04,-0.02,-17.88,4.33,-8
1,4,-9,-0.91,-0.04,-0.01,-17.88,4.33,-8
1,4,-9,-0.95,-0.05,-0.01,-15.44,2.75,-8.24
1,4,-9,-1,-0.04,0.01,-13.31,2.75,-8
1,4,-9,-1.04,-0.01,0.03,-12.88,4.76,-7.57
1,4,-9,-1.08,-0.01,0.05,-13.49,7.14,-7.14
1,4,-9,-1.08,-0.01,0.05,-13.49,7.14,-7.14
1,4,-9,-1.09,-0.05,0.06,-14.89,8.36,-6.16
1,3,-9,-1.14,-0.1,0.06,-20.14,8.97,-4.82
1,3,-9,-1.24,-0.17,-0.01,-30.27,8.54,-3.6
1,3,-9,-1.4,-0.18,-0.06,-40.34,5.68,-3.23
1,3,-9,-1.4,-0.18,-0.06,-40.34,5.68,-3.23
1,3,-9,-1.73,-0.21,-0.12,-45.78,4.88,-1.89
2,3,-9,-1.92,-0.24,0.03,-41.87,15.14,1.65
2,3,-9,-1.9,-0.15,0.33,-43.82,27.22,3.11
2,2,-9,-1.79,0.08,0.49,-65.12,22.71,4.94
2,2,-9,-1.79,0.08,0.49,-65.12,22.71,4.94
2,2,-9,-1.66,0.26,0.4,-84.41,1.71,6.35
2,2,-9,-1.55,0.23,0.19,-86.18,-21.79,3.91
1,2,-9,-1.46,0.14,0.1,-77.82,-31.07,1.53
1,2,-9,-1.46,0.14,0.1,-69.58,-26.79,2.14
1,2,-9,-1.38,0.05,0.12,-69.58,-26.79,2.14
1,2,-9,-1.36,-0.03,0.05,-69.89,-30.15,2.99
1,2,-9,-1.34,0.02,0.02,-71.41,-44.49,4.15
1,2,-9,-1.38,0.14,0,-69.64,-63.54,5.31
1,2,-9,-1.38,0.14,0,-66.83,-72.27,5.68
1,2,-9,-1.36,0.23,0.03,-66.83,-72.27,5.68
1,2,-9,-1.32,0.3,0.1,-64.21,-72.08,6.71
1,2,-9,-1.28,0.31,0.16,-59.75,-73.12,7.81
1,2,-8,-1.26,0.29,0.2,-55.36,-76.29,8.85
1,2,-8,-1.26,0.29,0.2,-55.36,-76.29,8.85
1,1,-8,-1.28,0.23,0.19,-52.61,-74.34,12.21
1,1,-8,-1.23,0.2,0.18,-49.68,-62.01,14.04
1,1,-8,-1.13,0.2,0.09,-50.17,-51.33,14.28
1,1,-8,-0.93,0.14,0.02,-46.94,-47.61,12.21
0,1,-7,-0.93,0.14,0.02,-46.94,-47.61,12.21
0,1,-7,-0.66,0.14,-0.24,-54.02,-60.79,3.42
0,1,-7,-1.06,0.12,-0.49,-90.27,-112.37,-3.42
-1,1,-8,-1.45,0.08,-0.12,-104.19,-145.63,-3.36
-1,1,-8,-1.47,0.1,0.47,-91.13,-97.72,-3.11
-1,1,-7,-1.47,0.1,0.47,-91.13,-97.72,-3.11
-1,1,-7,-0.95,0.15,0.58,-75.56,-8.06,-3.23
-1,1,-7,-0.72,0.09,0.37,-66.1,32.04,-3.05
-1,1,-7,-0.67,0.06,0.13,-69.15,38.64,-3.17
-1,1,-7,-0.62,0.05,-0.03,-73.06,42.36,-3.17
-1,1,-7,-0.62,0.05,-0.03,-73.06,42.36,-3.17
-1,1,-7,-0.59,0.06,-0.09,-69.4,46.33,-2.2
-2,1,-7,-0.55,0.06,-0.05,-61.22,49.56,-1.16
-2,1,-7,-0.57,0.1,0,-58.9,54.08,-0.18
-3,1,-7,-0.55,0.14,0.03,-61.22,60.12,-0.18
-3,1,-7,-0.55,0.14,0.03,-62.01,68.48,-0.79
-3,1,-7,-0.55,0.16,0.06,-62.01,68.48,-0.79
-3,1,-7,-0.54,0.16,0.1,-58.53,75.07,-0.31
-3,1,-7,-0.55,0.15,0.09,-55.18,79.35,0.79
-3,1,-7,-0.55,0.14,0.06,-56.03,82.7,2.14
-3,1,-7,-0.55,0.14,0.06,-56.03,82.7,2.14
-3,1,-7,-0.57,0.13,0.02,-57.92,83.98,3.42
-3,1,-7,-0.59,0.16,-0.04,-58.96,83.8,5.31
-4,1,-7,-0.64,0.18,-0.1,-56.76,81.12,7.32
-5,1,-7,-0.67,0.2,-0.14,-50.66,77.58,9.22
-6,1,-7,-0.67,0.2,-0.14,-50.66,77.58,9.22
-7,1,-7,-0.71,0.22,-0.17,-42.18,73.85,10.8
-7,1,-7,-0.72,0.23,-0.18,-35.16,69.34,11.72
-8,1,-7,-0.75,0.22,-0.19,-29.97,61.46,12.21
-8,1,-7,-0.77,0.19,-0.17,-22.83,53.71,13.24
-9,1,-8,-0.77,0.19,-0.17,-22.83,53.71,13.24
-9,1,-8,-0.76,0.19,-0.15,-15.2,45.35,13.85
-9,1,-8,-0.78,0.2,-0.14,-15.14,31.19,14.04
-10,2,-9,-0.82,0.22,-0.11,-14.47,17.82,14.47
-10,2,-10,-0.82,0.21,-0.11,-12.02,11.47,14.95
-10,2,-11,-0.82,0.21,-0.11,-9.58,4.7,15.5
-10,3,-11,-0.85,0.2,-0.08,-9.58,4.7,15.5
-10,3,-11,-0.9,0.2,-0.07,-9.09,-1.4,16.17
-11,3,-11,-0.95,0.21,-0.07,-9.83,-5.68,16.42
-11,3,-11,-0.97,0.22,-0.05,-9.89,-9.34,17.33
-11,3,-11,-0.97,0.22,-0.05,-6.65,-12.27,18.62
-11,3,-11,-1.1,0.24,-0.04,-6.65,-12.27,18.62
-11,3,-11,-1.06,0.22,-0.03,-5.37,-10.56,19.59
-11,3,-11,-1.05,0.22,0.03,-1.16,-11.47,19.96
-11,3,-11,-1.07,0.22,0.09,3.05,-19.35,20.75
-11,2,-11,-1.22,0.2,0.1,5.07,-30.64,22.09
-11,2,-11,-1.22,0.2,0.1,5.07,-30.64,22.09
-11,2,-11,-1.45,0.16,0.07,6.1,-40.89,23.01
-11,2,-11,-1.69,0.05,0.06,7.57,-44.62,22.4
-11,2,-11,-1.83,-0.12,0.13,9.16,-41.08,18.92
-11,2,-11,-1.84,-0.26,0.21,4.15,-33.2,13.73
-11,2,-11,-1.84,-0.26,0.21,4.15,-33.2,13.73
-11,1,-11,-1.79,-0.34,0.36,-6.35,-27.77,8.97
-11,1,-11,-1.68,-0.35,0.47,-19.17,-25.27,5.19
-11,1,-11,-1.6,-0.31,0.46,-29.85,-25.88,4.09
-11,1,-11,-1.52,-0.28,0.42,-32.84,-27.95,3.42
-11,1,-11,-1.52,-0.28,0.42,-32.53,-38.88,3.11
-11,1,-11,-1.51,-0.24,0.4,-32.53,-38.88,3.11
-11,1,-11,-1.48,-0.19,0.37,-33.26,-51.27,2.38
-10,0,-11,-1.48,-0.17,0.34,-38.51,-59.69,0.73
-10,0,-12,-1.41,-0.14,0.19,-45.72,-58.96,-1.28
-10,0,-12,-1.35,-0.14,0.12,-40.41,-54.69,-1.04
-9,0,-13,-1.35,-0.14,0.12,-40.41,-54.69,-1.04
-9,0,-13,-1.26,-0.13,0.09,-27.53,-44.56,-1.53
-9,0,-14,-1.11,-0.08,0.02,-24.29,-34.97,-2.87
-8,0,-13,-1.04,-0.18,-0.06,-21.06,-34,-3.11
-8,0,-13,-0.98,-0.22,-0.11,-23.32,-39.06,-3.42
-7,0,-13,-0.89,-0.16,-0.18,-34.73,-44.56,-3.17
-7,0,-13,-0.89,-0.16,-0.18,-50.72,-58.53,-3.3
-6,0,-13,-0.76,-0.13,-0.22,-50.72,-58.53,-3.3
-6,0,-13,-0.72,-0.2,-0.37,-72.02,-82.52,-3.23
-6,0,-13,-0.81,-0.16,-0.46,-94.85,-116.27,-3.11
-6,0,-13,-0.99,-0.05,-0.37,-110.53,-135.74,-2.99
-6,0,-13,-1.14,0.12,-0.11,-97.29,-118.9,-0.49
-6,0,-13,-1.22,0.13,0.31,-67.14,-70.74,2.56
-6,0,-13,-1.22,0.13,0.31,-67.14,-70.74,2.56
-6,0,-13,-0.99,-0.02,0.42,-43.7,-9.09,5.19
-6,0,-13,-0.86,-0.16,0.36,-31.43,24.35,8.79
-6,0,-13,-0.78,-0.23,0.18,-40.59,36.93,12.94
-6,0,-13,-0.75,-0.25,0,-53.96,42.48,15.38
-5,0,-13,-0.75,-0.25,0,-62.13,46.75,17.46
-5,0,-13,-0.75,-0.22,-0.08,-62.13,46.75,17.46
-5,0,-13,-0.74,-0.19,-0.08,-66.41,53.41,18.49
-5,0,-13,-0.7,-0.14,-0.09,-73.49,60,18.74
-5,0,-13,-0.71,-0.11,-0.03,-79.53,62.13,17.64
-5,0,-13,-0.74,-0.07,-0.11,-90.15,65.73,16.91
-5,0,-13,-0.74,-0.07,-0.11,-90.15,65.73,16.91
-5,0,-13,-0.73,-0.09,-0.08,-95.46,74.65,15.99
-5,0,-13,-0.73,-0.12,-0.07,-94.79,77.7,16.3
-5,0,-13,-0.74,-0.09,-0.12,-100.46,75.32,16.24
-5,1,-13,-0.77,-0.05,-0.16,-109.25,66.53,15.38
-5,1,-12,-0.77,-0.05,-0.16,-119.63,52.86,13.43
-5,2,-12,-0.81,-0.03,-0.2,-119.63,52.86,13.43
-5,2,-12,-0.83,0.04,-0.24,-121.28,44.62,12.39
-5,2,-12,-0.81,0.1,-0.18,-108.52,40.41,10.93
-5,2,-12,-0.8,0.08,-0.15,-96.74,32.23,9.28
-5,3,-12,-0.82,0.1,-0.2,-90.33,23.25,7.45
-5,3,-12,-0.82,0.1,-0.2,-90.33,23.25,7.45
-5,3,-12,-0.81,0.1,-0.23,-85.02,16.78,5.37
-5,4,-12,-0.8,0.09,-0.18,-75.93,12.76,3.91
-5,5,-12,-0.8,0.08,-0.12,-66.53,9.28,2.56
-5,5,-12,-0.81,0.07,-0.05,-59.51,7.14,1.34
-5,5,-12,-0.81,0.07,-0.05,-52.86,6.96,0.24
-5,5,-12,-0.81,0.06,0.01,-52.86,6.96,0.24
-5,5,-12,-0.82,0.03,0.04,-47.67,8.91,-0.55
-4,5,-12,-0.83,0.03,0.04,-45.1,10.19,-1.16
-4,5,-12,-0.85,0.05,0.02,-44.98,8.06,-1.95
-4,5,-12,-0.88,0.08,-0.01,-44.49,4.21,-2.87
-4,5,-12,-0.88,0.08,-0.01,-44.49,4.21,-2.87
-4,5,-12,-0.91,0.1,-0.03,-41.5,1.53,-3.3
-4,5,-12,-0.94,0.1,-0.04,-35.89,0.79,-3.91
-5,5,-12,-0.99,0.08,-0.05,-28.93,1.04,-4.52
-5,5,-12,-1.03,0.06,-0.03,-23.19,0.73,-5.37
-4,4,-12,-1.03,0.06,-0.03,-19.53,0.31,-5.98
-4,4,-12,-1.05,0.05,-0.01,-19.53,0.31,-5.98
-4,4,-12,-1.06,0.05,0.03,-17.88,-1.04,-6.65
-4,4,-12,-1.03,0.03,0.08,-15.81,-3.42,-7.81
-4,3,-12,-1,-0.05,0.11,-14.65,-6.59,-9.22
-4,3,-12,-1.08,-0.14,0.06,-19.47,-10.62,-11.17
-4,3,-12,-1.08,-0.14,0.06,-19.47,-10.62,-11.17
-4,3,-12,-1.25,-0.19,-0.02,-28.26,-9.58,-12.76
-4,3,-12,-1.42,-0.19,-0.06,-33.63,-3.66,-13
-4,3,-12,-1.6,-0.09,-0.06,-36.68,3.36,-11.72
-4,3,-12,-1.55,0.05,0.12,-41.26,14.95,-11.35
-4,3,-12,-1.51,0.19,0.26,-48.95,14.95,-10.07
-4,2,-12,-1.51,0.19,0.26,-48.95,14.95,-10.07
-4,2,-12,-1.48,0.26,0.31,-54.69,-1.71,-9.16
-4,2,-12,-1.52,0.27,0.25,-55.05,-24.05,-10.31
-4,2,-12,-1.59,0.2,0.15,-52.55,-41.87,-11.72
-4,2,-12,-1.56,0.1,0.14,-47.61,-45.84,-12.57
-4,2,-11,-1.5,0.02,0.15,-45.23,-47.3,-12.57
-4,2,-11,-1.5,0.02,0.15,-45.23,-47.3,-12.57
-4,2,-11,-1.4,-0.04,0.19,-46.02,-56.15,-11.9
-4,1,-11,-1.46,-0.04,0.18,-48.89,-74.1,-10.5
-4,1,-11,-1.47,0.07,0.17,-54.81,-82.46,-8.91
-4,1,-11,-1.44,0.13,0.15,-55.97,-79.41,-7.08
-4,0,-11,-1.44,0.13,0.15,-49.68,-74.52,-5.68
-4,-1,-11,-1.39,0.13,0.15,-49.68,-74.52,-5.68
-4,-3,-11,-1.35,0.07,0.15,-42.91,-71.96,-5
-4,-3,-11,-1.33,0,0.12,-40.34,-70.8,-3.78
-3,-4,-11,-1.28,-0.04,0.12,-39.25,-67.5,-2.26
-3,-4,-11,-1.14,0.02,0.03,-39.43,-61.89,-2.38
-3,-4,-11,-1.14,0.02,0.03,-43.76,-70.74,-6.84
-3,-4,-11,-0.76,0.1,-0.18,-43.76,-70.74,-6.84
-3,-4,-11,-0.88,-0.01,-0.53,-63.42,-110.9,-12.39
-3,-4,-11,-1.42,0.01,-0.33,-77.09,-152.71,-10.86
-3,-4,-11,-1.5,0.05,0.19,-68.97,-126.46,-9.89
-3,-4,-10,-1.09,0.06,0.61,-45.23,-36.8,-9.52
-3,-4,-10,-0.75,0,0.51,-21.79,31.62,-9.09
-3,-4,-10,-0.75,0,0.51,-21.79,31.62,-9.09
-2,-4,-10,-0.56,-0.06,0.31,-25.51,52.55,-10.01
-2,-4,-10,-0.49,-0.07,0.11,-44.74,53.41,-9.64
-2,-4,-10,-0.53,-0.02,-0.07,-57.74,52.55,-8.06
-2,-4,-10,-0.54,0.03,-0.13,-58.04,56.15,-6.9
-2,-4,-10,-0.57,0.11,-0.15,-52.43,59.69,-5.68
-2,-4,-10,-0.57,0.11,-0.15,-52.43,59.69,-5.68
-2,-4,-10,-0.56,0.09,-0.13,-46.69,64.39,-4.7
-2,-4,-10,-0.53,0.04,-0.07,-39.49,68.6,-4.46
-2,-4,-10,-0.55,0.04,-0.01,-37.41,72.81,-3.17
-2,-4,-10,-0.58,0.08,0.05,-41.14,74.71,-0.61
-2,-4,-10,-0.58,0.16,0.03,-47.97,72.27,1.59
-2,-4,-10,-0.58,0.16,0.03,-47.97,72.27,1.59
-2,-4,-10,-0.67,0.17,0.02,-47.24,65.67,3.48
-3,-4,-10,-0.68,0.16,-0.01,-45.96,62.56,5.37
-3,-4,-10,-0.67,0.18,-0.06,-47.36,60.85,7.32
-3,-4,-10,-0.7,0.21,-0.12,-47.12,53.16,9.46
-3,-4,-10,-0.7,0.21,-0.12,-44.13,41.56,11.54
-3,-4,-10,-0.75,0.23,-0.17,-44.13,41.56,11.54
-3,-3,-10,-0.77,0.23,-0.16,-35.22,35.16,12.94
-3,-3,-10,-0.8,0.23,-0.15,-22.58,30.27,15.63
-4,-3,-11,-0.84,0.21,-0.11,-6.77,26.37,17.76
-5,-3,-11,-0.85,0.17,-0.09,3.6,23.07,19.71
-5,-3,-11,-0.85,0.17,-0.09,3.6,23.07,19.71
-5,-3,-11,-0.89,0.15,-0.05,8.42,19.53,21.91
-5,-3,-11,-0.91,0.14,-0.02,10.07,17.88,23.99
-6,-3,-11,-0.95,0.13,-0.01,11.54,16.54,25.63
-6,-3,-11,-1,0.12,-0.01,15.14,14.59,27.22
-6,-3,-11,-1,0.12,-0.01,15.14,14.59,27.22
-6,-3,-11,-1.06,0.11,-0.02,18.43,14.04,28.08
-6,-3,-11,-1.1,0.09,-0.03,19.78,13.61,28.32
-6,-3,-11,-1.12,0.08,-0.01,19.78,13,27.65
-6,-3,-11,-1.13,0.07,0.01,17.58,11.23,26.61
-6,-3,-11,-1.13,0.07,0.01,17.58,11.23,26.61
-5,-2,-10,-1.14,0.07,0.03,12.82,8.97,25.27
-5,-2,-10,-1.11,0.09,0.05,8.24,7.69,23.8
-5,-2,-10,-1.1,0.11,0.05,4.88,6.23,21.85
-5,-2,-10,-1.15,0.13,0.04,2.93,2.87,19.84
-5,-2,-10,-1.15,0.13,0.04,2.93,2.87,19.84
-5,-2,-10,-1.28,0.15,0.01,1.28,-1.16,17.58
-5,-2,-10,-1.48,0.13,-0.02,1.34,-4.76,14.65
-5,-2,-10,-1.67,0.08,-0.06,3.54,-8.48,9.77
-5,-2,-10,-1.76,-0.03,-0.04,8.67,-8.91,4.21
-5,-2,-9,-1.76,-0.03,-0.04,8.67,-8.91,4.21
-5,-2,-9,-1.66,-0.11,0.1,13.31,-4.58,-2.32
-5,-2,-9,-1.53,-0.19,0.2,11.66,-10.31,-7.75
-5,-2,-9,-1.41,-0.19,0.25,6.23,-20.14,-11.66
-5,-2,-9,-1.28,-0.19,0.26,0.06,-25.39,-14.65
-5,-2,-9,-1.15,-0.21,0.3,-4.15,-32.29,-17.7
-5,-2,-10,-1.15,-0.21,0.3,-4.15,-32.29,-17.7
-5,-2,-10,-1.22,-0.25,0.28,-6.04,-51.27,-20.51
-5,-2,-10,-1.29,-0.24,0.26,-6.41,-68.12,-22.71
-5,-2,-10,-1.35,-0.18,0.23,-6.47,-70.5,-22.71
-4,-2,-10,-1.34,-0.11,0.26,-2.01,-63.54,-23.19
-4,-2,-10,-1.27,-0.11,0.32,1.46,-56.95,-24.66
-4,-2,-11,-1.27,-0.11,0.32,4.03,-55.42,-24.54
-4,-3,-11,-1.22,-0.1,0.3,4.03,-55.42,-24.54
-4,-4,-12,-1.17,-0.07,0.23,5.49,-50.35,-23.5
-4,-4,-13,-1.08,-0.1,0.14,6.84,-41.63,-23.44
-3,-4,-13,-1.01,-0.18,0.03,7.51,-34.24,-22.52
-3,-4,-13,-0.95,-0.14,-0.08,6.35,-28.44,-20.2
-3,-4,-13,-0.95,-0.14,-0.08,7.93,-27.16,-17.46
-2,-4,-13,-0.93,-0.12,-0.2,7.93,-27.16,-17.46
-2,-4,-13,-0.88,-0.14,-0.22,12.76,-32.04,-15.26
-2,-4,-13,-0.76,-0.24,-0.21,12.51,-40.89,-13.18
-2,-4,-13,-0.68,-0.36,-0.31,1.95,-58.17,-9.16
-1,-4,-13,-0.73,-0.42,-0.38,-15.32,-92.35,-4.58
-1,-4,-13,-0.97,-0.31,-0.23,-30.52,-122.68,0.37
-1,-4,-13,-0.97,-0.31,-0.23,-30.52,-122.68,0.37
-1,-4,-12,-1.1,-0.18,0.1,-24.11,-110.35,4.88
-1,-4,-12,-1.08,-0.14,0.43,-5.43,-60.79,8.79
-1,-4,-13,-0.8,-0.17,0.48,14.71,-5.43,11.96
-1,-4,-13,-0.72,-0.21,0.37,22.09,16.3,12.63
-1,-4,-13,-0.7,-0.21,0.16,9.52,22.77,12.94
-1,-4,-13,-0.7,-0.21,0.16,9.52,22.77,12.94
-1,-4,-13,-0.68,-0.17,0.04,-1.16,32.59,11.66
-1,-4,-13,-0.69,-0.14,-0.04,-6.04,38.21,11.66
-1,-4,-13,-0.66,-0.13,-0.09,-3.85,42.11,11.41
0,-4,-13,-0.68,-0.11,-0.1,-1.77,46.57,10.8
0,-4,-12,-0.72,-0.13,-0.06,-2.75,51.21,8.73
0,-4,-12,-0.72,-0.13,-0.06,-2.75,51.21,8.73
0,-4,-12,-0.75,-0.15,-0.09,-13.55,55.42,5.86
1,-4,-12,-0.79,-0.13,-0.1,-19.96,62.32,4.52
1,-4,-12,-0.76,-0.1,-0.08,-24.17,67.99,2.93
1,-4,-12,-0.77,-0.08,-0.09,-30.09,65.92,1.04
1,-4,-12,-0.77,-0.08,-0.09,-33.14,56.64,-1.53
1,-3,-12,-0.82,-0.05,-0.06,-33.14,56.64,-1.53
1,-1,-11,-0.85,-0.05,-0.06,-36.68,48.71,-3.48
1,1,-11,-0.87,-0.09,-0.11,-33.45,48.1,-4.58
1,2,-10,-0.87,-0.09,-0.1,-28.56,47.24,-5.8
2,2,-9,-0.85,-0.12,-0.14,-29.54,45.53,-7.69
2,3,-8,-0.85,-0.12,-0.14,-31.01,39.73,-9.34
2,3,-7,-0.84,-0.14,-0.16,-31.01,39.73,-9.34
2,3,-2,-0.86,-0.12,-0.17,-33.75,32.23,-11.05
2,3,6,-0.86,-0.1,-0.16,-35.64,27.04,-13
3,3,10,-0.86,-0.08,-0.14,-35.95,24.48,-14.53
3,3,11,-0.88,-0.06,-0.11,-34.61,21.79,-15.75
3,3,13,-0.88,-0.06,-0.11,-34.61,21.79,-15.75
3,3,14,-0.89,-0.06,-0.09,-31.49,18.55,-16.6
3,4,14,-0.92,-0.07,-0.06,-27.4,15.81,-16.66
3,4,15,-0.96,-0.07,-0.03,-24.05,13.24,-16.05
3,3,15,-0.99,-0.07,0,-22.71,10.68,-15.5
3,3,15,-0.99,-0.07,0,-22.71,10.68,-15.5
3,3,15,-1.01,-0.06,0.03,-22.28,6.84,-13.92
3,3,15,-1.03,-0.08,0.06,-22.28,1.83,-12.08
4,3,15,-1.05,-0.09,0.07,-24.84,-2.93,-10.13
4,3,15,-1.08,-0.11,0.07,-29.05,-5.19,-7.75
4,3,15,-1.08,-0.11,0.07,-29.05,-5.19,-7.75
4,3,15,-1.14,-0.11,0.09,-32.78,-4.21,-5.19
4,3,15,-1.23,-0.17,0.11,-35.83,2.2,-2.99
4,3,15,-1.34,-0.21,0.1,-39.43,11.66,-0.31
4,3,14,-1.45,-0.22,0.11,-43.03,15.08,2.62
5,2,14,-1.45,-0.22,0.11,-43.03,15.08,2.62
5,2,13,-1.57,-0.15,0.08,-49.74,14.28,6.16
5,1,12,-1.62,-0.05,0.07,-58.59,9.83,9.4
5,0,11,-1.64,0.08,0.01,-66.47,-1.22,11.35
5,0,11,-1.64,0.08,0.01,-67.87,-15.93,11.11
5,0,11,-1.58,0.18,-0.01,-67.87,-15.93,11.11
4,0,11,-1.48,0.2,-0.07,-62.87,-29.66,8.73
4,0,11,-1.39,0.2,-0.12,-54.75,-36.56,7.45
4,0,11,-1.3,0.14,-0.1,-43.88,-38.45,6.96
4,0,11,-1.3,0.14,-0.1,-43.88,-38.45,6.96
4,0,11,-1.22,0.08,-0.04,-33.51,-44.98,7.02
4,0,10,-1.22,0.07,0.04,-26.18,-59.63,6.77
4,0,11,-1.25,0.11,0.11,-24.17,-74.22,6.23
4,0,11,-1.29,0.16,0.18,-25.21,-79.22,5.62
4,0,11,-1.29,0.16,0.18,-25.21,-79.22,5.62
3,0,11,-1.26,0.19,0.24,-28.2,-75.01,4.64
3,0,11,-1.24,0.21,0.25,-30.64,-70.8,4.88
2,0,11,-1.22,0.14,0.24,-29.36,-70.43,5.19
2,0,11,-1.22,0.14,0.24,-29.36,-70.43,5.19
2,0,11,-1.19,0.05,0.15,-30.21,-67.38,6.71
2,0,11,-1.23,0.12,0.08,-31.07,-62.74,8.73
2,0,11,-1.22,0.13,0.07,-28.63,-55.79,8.24
1,0,11,-1.15,0.1,0.05,-22.22,-49.07,7.02
1,0,11,-1.15,0.1,0.05,-22.22,-49.07,7.02
1,0,11,-1,0.1,0.04,-18.37,-46.75,3.85
1,0,11,-0.88,0.03,-0.08,-25.27,-54.38,-1.77
1,0,11,-0.92,0.01,-0.23,-51.88,-79.16,-7.32
0,0,11,-0.92,0.01,-0.23,-80.63,-106.26,-12.15
0,0,11,-1.18,0.01,-0.29,-80.63,-106.26,-12.15
0,0,11,-1.29,0.11,-0.02,-82.15,-102.78,-11.66
0,0,11,-1.13,0.16,0.26,-58.59,-50.78,-10.86
0,0,11,-0.89,0.13,0.41,-39,5.68,-10.68
0,0,11,-0.89,0.13,0.41,-30.46,40.28,-10.93
0,0,11,-0.68,0.04,0.33,-30.46,40.28,-10.93
0,0,11,-0.6,-0.01,0.2,-31.86,48.34,-10.25
0,0,11,-0.62,0.02,0.08,-39.86,49.74,-8.42
0,0,11,-0.63,0.06,-0.01,-43.52,54.2,-6.59
0,0,11,-0.63,0.06,-0.01,-43.52,54.2,-6.59
0,0,11,-0.62,0.09,-0.03,-41.99,61.22,-5.07
0,0,11,-0.63,0.1,-0.02,-37.96,66.28,-3.66
-1,0,11,-0.62,0.11,0,-34.79,69.95,-2.75
-1,0,11,-0.62,0.11,0.01,-34,72.02,-0.98
-1,0,11,-0.62,0.11,0.01,-34,72.02,-0.98
-1,0,11,-0.64,0.13,-0.01,-33.75,71.17,1.22
-1,0,11,-0.67,0.15,-0.03,-31.68,67.93,3.11
-1,0,11,-0.7,0.14,-0.06,-29.3,65.43,5.43
-1,0,10,-0.7,0.14,-0.06,-25.82,63.11,7.87
-1,0,10,-0.73,0.16,-0.08,-25.82,63.11,7.87
-2,0,10,-0.76,0.14,-0.08,-21.24,60.85,9.46
-3,1,10,-0.77,0.12,-0.1,-19.04,57.43,10.44
-3,1,10,-0.78,0.1,-0.1,-18.25,51.64,11.72
-3,1,9,-0.78,0.1,-0.1,-17.82,44.62,12.88
-3,1,9,-0.8,0.1,-0.11,-17.82,44.62,12.88
-4,1,9,-0.82,0.12,-0.12,-17.88,37.78,13.67
-4,1,9,-0.83,0.12,-0.14,-17.09,32.17,14.47
-4,2,9,-0.85,0.14,-0.2,-13.18,27.65,15.2
-4,2,8,-0.85,0.14,-0.2,-5.07,22.58,15.5
-4,2,8,-0.86,0.15,-0.2,-5.07,22.58,15.5
-5,2,7,-0.87,0.13,-0.18,2.5,19.35,15.87
-5,3,6,-0.89,0.11,-0.14,9.64,16.36,15.75
-5,3,4,-0.91,0.09,-0.1,15.01,15.08,15.87
-5,3,1,-0.91,0.09,-0.1,15.01,15.08,15.87
-5,3,-1,-0.93,0.08,-0.06,17.09,14.47,15.93
-5,3,-1,-1.01,0.11,-0.06,15.99,12.57,15.56
-5,3,-2,-1.02,0.1,-0.08,13.67,15.87,14.95
-5,3,-2,-1.02,0.09,-0.05,12.57,21.06,14.1
-5,3,-2,-1.02,0.09,-0.05,12.57,21.06,14.1
-5,3,-2,-1.03,0.08,-0.02,11.72,18.62,13.92
-5,3,-2,-1.03,0.07,0.02,7.51,12.15,13.55
-5,3,-2,-1.04,0.09,0.05,1.16,4.88,13.31
-5,3,-2,-1.04,0.09,0.05,-5.92,-1.89,13.12
-5,3,-2,-1.08,0.11,0.08,-5.92,-1.89,13.12
-5,3,-2,-1.24,0.12,0.06,-11.47,-8.61,13
-5,2,-2,-1.43,0.1,0.03,-13.24,-11.29,11.72
-5,2,-2,-1.63,-0.01,-0.01,-13.43,-13.24,9.4
-5,2,-2,-1.78,-0.14,0,-12.08,-15.38,6.41
-5,2,-2,-1.78,-0.14,0,-12.08,-15.38,6.41
-5,2,-2,-1.8,-0.19,-0.01,-12.21,-15.56,3.48
-5,2,-2,-1.73,-0.23,0.01,-8.48,-16.97,1.28
-5,2,-2,-1.57,-0.18,0.02,-4.09,-22.34,-1.46
-5,2,-2,-1.45,-0.17,0.03,0,-29.3,-2.81
-5,1,-2,-1.34,-0.18,0.12,7.81,-36.87,-4.7
-5,1,-2,-1.34,-0.18,0.12,7.81,-36.87,-4.7
-5,1,-2,-1.29,-0.22,0.23,12.57,-46.08,-6.65
-5,1,-2,-1.29,-0.25,0.3,17.64,-60.55,-7.87
-4,1,-2,-1.33,-0.27,0.29,13.31,-71.47,-8.18
-4,1,-2,-1.33,-0.23,0.25,3.42,-71.59,-8.36
-4,1,-2,-1.33,-0.23,0.25,-0.55,-66.83,-8.54
-4,1,-2,-1.32,-0.17,0.24,-0.55,-66.83,-8.54
-3,0,-3,-1.28,-0.15,0.24,2.32,-61.22,-9.4
-3,0,-3,-1.19,-0.18,0.19,4.09,-53.53,-10.25
-2,0,-3,-1.11,-0.18,0.13,1.04,-45.72,-10.13
-2,0,-3,-1.08,-0.18,0.02,-4.15,-41.38,-9.28
-1,0,-3,-1.08,-0.18,0.02,-11.23,-38.21,-8.48
-1,0,-3,-1.03,-0.21,-0.06,-11.23,-38.21,-8.48
0,0,-3,-0.96,-0.2,-0.12,-19.71,-35.16,-5.43
0,0,-3,-0.81,-0.18,-0.18,-22.52,-37.11,-4.09
1,0,-3,-0.66,-0.28,-0.37,-35.95,-57.62,-4.58
1,0,-3,-0.8,-0.29,-0.47,-63.23,-100.46,-4.09
1,0,-3,-0.8,-0.29,-0.47,-80.08,-129.21,-2.62
1,0,-3,-1.03,-0.15,-0.36,-80.08,-129.21,-2.62
1,0,-3,-1.13,0.02,-0.07,-68.36,-113.95,-0.61
1,0,-3,-1.15,0,0.32,-34.3,-67.81,2.87
1,0,-3,-0.97,-0.13,0.59,-5.31,-16.85,4.94
1,0,-3,-0.83,-0.24,0.5,-3.97,15.08,5.55
1,0,-3,-0.83,-0.24,0.5,-3.97,15.08,5.55
1,0,-3,-0.78,-0.24,0.25,-22.46,26.92,6.29
1,0,-3,-0.77,-0.21,0.04,-38.02,36.32,5.98
1,0,-3,-0.73,-0.16,-0.06,-47.36,45.84,5
1,0,-3,-0.72,-0.08,-0.11,-51.57,53.41,4.21
1,0,-3,-0.72,-0.08,-0.11,-51.57,53.41,4.21
1,0,-3,-0.74,-0.06,-0.1,-52.49,57.86,2.62
1,0,-3,-0.76,-0.11,-0.13,-58.17,60.36,-0.06
1,0,-3,-0.77,-0.15,-0.14,-60.49,68.6,-1.28
1,0,-3,-0.76,-0.15,-0.13,-62.62,73.06,-1.34
1,0,-3,-0.76,-0.15,-0.13,-65.19,75.01,-1.59
1,0,-3,-0.78,-0.1,-0.11,-65.19,75.01,-1.59
1,0,-3,-0.81,-0.07,-0.12,-67.5,71.04,-2.32
2,1,-3,-0.85,-0.05,-0.08,-68.12,64.03,-2.69
2,1,-2,-0.87,-0.05,-0.05,-66.89,60.24,-3.17
2,1,0,-0.87,-0.02,-0.04,-66.1,56.03,-3.6
2,1,1,-0.87,-0.02,-0.04,-66.1,56.03,-3.6
2,1,3,-0.86,-0.03,-0.06,-66.89,49.68,-4.64
2,1,3,-0.86,-0.03,-0.1,-65.86,41.56,-5.37
2,1,4,-0.86,-0.03,-0.14,-62.93,34.3,-6.29
2,1,4,-0.88,-0.02,-0.16,-60.12,28.81,-7.26
2,2,4,-0.88,-0.02,-0.16,-60.12,28.81,-7.26
2,2,4,-0.86,-0.02,-0.15,-58.35,26.06,-8.42
1,2,4,-0.85,0.01,-0.14,-57.31,25.33,-9.46
1,2,4,-0.84,-0.01,-0.13,-54.5,21.91,-9.95
1,2,5,-0.84,-0.03,-0.1,-49.62,17.88,-9.89
1,2,5,-0.84,-0.03,-0.1,-49.62,17.88,-9.89
1,2,5,-0.84,-0.04,-0.06,-44.19,15.26,-9.58
1,2,5,-0.85,-0.05,0,-41.93,14.04,-9.7
1,2,5,-0.86,-0.05,0.02,-43.46,12.45,-9.95
2,2,5,-0.87,-0.03,0.04,-46.39,10.99,-9.7
2,2,5,-0.87,-0.03,0.04,-46.39,10.99,-9.7
2,2,5,-0.89,-0.01,0.03,-48.03,7.2,-9.4
2,2,5,-0.93,0.01,0.01,-48.16,3.66,-9.22
1,2,5,-0.96,0.02,0,-46.94,1.95,-8.61
1,2,5,-0.98,0.01,-0.01,-45.23,1.4,-8
1,2,5,-0.98,0.01,-0.01,-45.23,1.4,-8
1,2,5,-1,0.01,-0.01,-43.58,1.71,-7.02
1,2,5,-1.01,-0.02,-0.02,-41.99,0.98,-5.74
1,2,5,-1.02,-0.07,-0.02,-42.48,-0.49,-5
1,2,5,-1.02,-0.07,-0.02,-45.47,-0.92,-4.39
1,1,5,-1.06,-0.12,-0.01,-45.47,-0.92,-4.39
1,1,5,-1.15,-0.17,-0.02,-49.68,-0.43,-3.85
1,1,5,-1.32,-0.21,-0.03,-52.98,1.22,-3.66
2,1,5,-1.61,-0.2,-0.05,-54.93,3.6,-2.75
2,1,5,-1.71,-0.14,0.01,-56.88,10.93,-1.46
2,1,5,-1.71,-0.14,0.01,-56.88,10.93,-1.46
2,1,5,-1.67,-0.02,0.13,-62.32,15.63,-0.79
2,1,5,-1.58,0.15,0.22,-71.11,4.58,0.61
2,1,5,-1.46,0.23,0.18,-79.83,-15.2,2.08
2,0,5,-1.46,0.23,0.18,-82.4,-30.21,1.95
2,0,5,-1.37,0.21,0.09,-82.4,-30.21,1.95
1,0,5,-1.29,0.18,0.01,-81.54,-32.35,1.1
1,0,5,-1.18,0.15,-0.03,-78.61,-28.14,0.49
1,0,5,-1.15,0.15,-0.11,-74.95,-32.35,0.12
1,0,5,-1.15,0.15,-0.11,-66.22,-44.43,0.92
1,0,5,-1.18,0.13,-0.14,-66.22,-44.43,0.92
1,0,5,-1.21,0.15,-0.12,-55.48,-51.09,2.32
1,0,5,-1.21,0.2,-0.03,-45.9,-51.7,3.3
-1,0,5,-1.19,0.23,0.09,-40.1,-50.9,3.97
-1,0,5,-1.19,0.23,0.09,-38.51,-54.81,3.54
-2,0,5,-1.15,0.18,0.2,-38.51,-54.81,3.54
-2,0,5,-1.15,0.16,0.22,-42.05,-63.05,3.11
-2,0,5,-1.15,0.14,0.18,-46.69,-69.52,2.99
-2,0,5,-1.14,0.13,0.13,-48.58,-69.82,3.6
-3,0,5,-1.14,0.13,0.13,-48.58,-69.82,3.6
-3,0,5,-1.12,0.14,0.09,-48.28,-65.98,3.97
-3,0,5,-1.08,0.15,0.05,-46.94,-61.77,3.85
-3,0,5,-1.03,0.15,0.02,-42.24,-59.69,3.42
-3,0,5,-0.88,0.16,0.02,-40.16,-58.84,-0.12
-3,0,5,-0.88,0.16,0.02,-40.16,-58.84,-0.12
-4,0,5,-0.75,0.16,-0.09,-55.11,-66.1,-6.84
-4,0,5,-0.91,0.15,-0.36,-84.11,-93.08,-12.7
-4,0,5,-1.18,0.16,-0.29,-89.78,-116.33,-13.55
-4,0,5,-1.17,0.24,-0.06,-71.9,-94.06,-11.96
-4,0,5,-1.17,0.24,-0.06,-50.42,-44.07,-12.39
-5,0,5,-1.05,0.25,0.23,-50.42,-44.07,-12.39
-5,0,5,-0.9,0.15,0.34,-36.99,-3.48,-13.55
-5,0,5,-0.78,0.01,0.31,-30.94,22.46,-13.43
-5,0,5,-0.77,-0.02,0.19,-40.89,32.1,-13.18
-5,0,5,-0.77,-0.02,0.19,-56.88,36.68,-12.63
-5,0,5,-0.79,0.01,0.04,-56.88,36.68,-12.63
-5,0,5,-0.79,0.06,-0.02,-62.19,45.9,-11.41
-5,0,5,-0.77,0.12,-0.02,-59.88,57.8,-9.89
-5,0,5,-0.74,0.14,-0.01,-53.77,68.3,-8.3
-5,0,5,-0.72,0.17,0,-48.22,74.1,-7.14
-5,0,5,-0.72,0.17,0,-48.22,74.1,-7.14
-5,0,5,-0.75,0.17,-0.01,-43.33,77.15,-6.1
-5,0,5,-0.77,0.15,-0.02,-37.72,79.53,-4.64
-5,0,5,-0.79,0.15,-0.05,-33.69,81.42,-3.05
-5,0,4,-0.79,0.15,-0.05,-30.88,81.91,-2.01
-5,0,4,-0.8,0.15,-0.06,-30.88,81.91,-2.01
-5,1,3,-0.83,0.14,-0.08,-31.62,79.71,-1.53
-5,1,3,-0.83,0.12,-0.12,-33.69,75.07,-1.1
-5,1,3,-0.87,0.11,-0.13,-34.67,67.57,-0.67
-5,1,3,-0.87,0.1,-0.16,-35.46,59.14,-0.55
-5,1,3,-0.87,0.1,-0.16,-35.46,59.14,-0.55
-6,1,3,-0.88,0.1,-0.16,-35.77,49.87,0.18
-6,1,3,-0.89,0.12,-0.18,-35.83,40.47,0.49
-6,1,2,-0.88,0.16,-0.2,-35.64,32.84,0.49
-6,1,2,-0.85,0.19,-0.2,-33.75,27.53,0.85
-6,2,2,-0.85,0.19,-0.2,-33.75,27.53,0.85
-6,2,2,-0.83,0.19,-0.18,-27.71,22.28,1.22
-6,2,1,-0.84,0.19,-0.16,-19.84,17.21,1.89
-6,3,0,-0.85,0.15,-0.14,-15.08,13.98,2.44
-6,3,0,-0.84,0.17,-0.1,-14.22,14.4,2.93
-6,3,-1,-0.84,0.17,-0.1,-14.22,14.4,2.93
-7,3,-1,-0.9,0.17,-0.1,-14.28,14.4,3.6
-7,3,-1,-0.91,0.2,-0.15,-15.5,16.78,4.03
-8,3,-2,-0.93,0.25,-0.13,-13.73,18.07,4.33
-8,4,-2,-0.96,0.22,-0.12,-7.51,15.32,4.88
-9,4,-2,-0.96,0.22,-0.12,-7.51,15.32,4.88
-9,4,-3,-0.97,0.19,-0.11,-2.32,11.9,5.49
-9,4,-4,-1.01,0.15,-0.1,-0.85,7.32,6.23
-9,4,-6,-1.04,0.14,-0.08,-4.76,2.69,6.41
-9,4,-8,-1.08,0.13,-0.04,-9.03,-0.79,6.77
-9,4,-8,-1.08,0.13,-0.04,-9.03,-0.79,6.77
-9,4,-8,-1.09,0.12,0,-11.29,-2.38,6.77
-9,4,-8,-1.1,0.11,0.03,-14.59,-3.6,6.53
-9,4,-8,-1.1,0.1,0.07,-20.2,-3.72,5.98
-9,4,-8,-1.1,0.11,0.09,-26.67,-1.83,5.55
-9,4,-8,-1.1,0.11,0.09,-33.14,2.2,5.43
-9,4,-8,-1.1,0.15,0.09,-33.14,2.2,5.43
-9,4,-8,-1.2,0.18,0.07,-37.23,2.14,6.47
-9,4,-8,-1.35,0.18,-0.01,-34.73,0.92,7.93
-9,4,-8,-1.51,0.17,-0.06,-24.11,-0.61,8.48
-8,3,-8,-1.51,0.17,-0.06,-9.95,-3.72,8.06
-8,3,-8,-1.61,0.04,-0.06,-9.95,-3.72,8.06
-8,3,-8,-1.67,-0.01,-0.13,-0.49,-9.03,6.71
-8,3,-8,-1.63,-0.03,-0.16,9.03,-14.83,6.29
-8,3,-8,-1.52,-0.07,-0.12,21,-21.3,5.19
-8,3,-8,-1.38,-0.02,-0.1,24.05,-30.33,4.76
-8,3,-8,-1.38,-0.02,-0.1,26.25,-41.44,4.46
-8,3,-8,-1.27,0,-0.07,26.25,-41.44,4.46
-8,3,-8,-1.22,-0.05,-0.04,30.58,-53.83,3.91
-8,3,-8,-1.22,-0.1,0.03,33.75,-66.41,2.08
-7,3,-8,-1.23,-0.15,0.17,32.84,-75.87,0.61
-7,3,-8,-1.26,-0.16,0.25,31.98,-82.09,0.73
-7,3,-8,-1.26,-0.16,0.25,31.98,-82.09,0.73
-7,3,-8,-1.23,-0.17,0.4,31.37,-83.13,0.12
-7,3,-8,-1.2,-0.14,0.47,22.28,-81.6,-0.85
-7,3,-8,-1.14,-0.13,0.46,10.62,-78.43,-2.32
-6,3,-8,-1.09,-0.06,0.34,5.19,-73.18,-2.5
-6,3,-8,-1.09,-0.06,0.34,5.19,-73.18,-2.5
-6,3,-8,-1.05,-0.04,0.28,8,-64.51,-1.53
-6,3,-8,-1,-0.08,0.14,8.67,-51.88,-1.65
-5,3,-8,-0.9,-0.1,0,8.67,-39.31,0.12
-5,3,-8,-0.77,-0.06,-0.09,15.5,-33.69,1.53
-5,3,-8,-0.68,-0.17,-0.33,5.25,-48.58,0.12
-4,3,-8,-0.68,-0.17,-0.33,5.25,-48.58,0.12
-4,3,-8,-0.87,-0.18,-0.55,-20.26,-86.61,0
-4,3,-8,-1.12,-0.09,-0.45,-28.08,-114.62,2.08
-4,3,-8,-1.2,-0.02,-0.19,-15.26,-94.79,4.82
-4,3,-8,-1.11,-0.14,0.12,5.13,-47.12,6.59
-4,3,-8,-1.11,-0.14,0.12,25.09,-8.24,9.4
-4,3,-8,-1.02,-0.2,0.41,25.09,-8.24,9.4
-4,3,-8,-0.98,-0.24,0.45,30.09,11.47,12.27
-3,3,-8,-0.92,-0.26,0.33,22.83,28.14,12.88
-3,3,-8,-0.87,-0.17,0.18,13.18,44.68,12.63
-3,3,-8,-0.89,-0.08,0.11,8.48,56.76,11.23
-3,3,-8,-0.89,-0.08,0.11,8.48,56.76,11.23
-3,3,-8,-0.83,-0.09,0,-2.2,67.2,7.39
-3,3,-8,-0.79,-0.13,-0.04,-9.34,74.65,4.52
-3,3,-8,-0.77,-0.1,-0.11,-11.6,77.09,3.85
-2,3,-8,-0.73,-0.07,-0.15,-14.77,76.78,2.08
-2,3,-8,-0.73,-0.07,-0.15,-14.77,76.78,2.08
-2,3,-8,-0.72,-0.04,-0.19,-15.93,71.04,0
-2,3,-8,-0.75,-0.04,-0.17,-15.63,62.68,-2.2
-2,3,-8,-0.78,-0.08,-0.16,-15.38,57.86,-4.52
-2,3,-8,-0.79,-0.03,-0.13,-13,55.24,-5.92
-2,3,-8,-0.79,-0.03,-0.13,-7.81,55.3,-7.51
-1,3,-8,-0.79,-0.03,-0.13,-7.81,55.3,-7.51
-1,3,-8,-0.81,-0.05,-0.15,-7.14,49.32,-9.22
-1,3,-7,-0.85,-0.06,-0.13,-6.1,42.91,-11.35
-1,4,-6,-0.87,-0.05,-0.14,-9.34,37.41,-13
0,4,0,-0.89,-0.05,-0.12,-10.56,32.53,-14.53
1,4,5,-0.89,-0.05,-0.12,-10.01,27.89,-15.44
1,5,8,-0.92,-0.05,-0.1,-10.01,27.89,-15.44
1,5,11,-0.93,-0.03,-0.11,-11.54,23.44,-16.36
2,5,14,-0.96,-0.05,-0.11,-11.41,18.13,-17.03
2,5,15,-0.97,-0.07,-0.11,-9.52,15.2,-17.27
2,5,16,-0.97,-0.07,-0.11,-8.48,13.85,-17.46
3,5,17,-0.98,-0.08,-0.09,-8.48,13.85,-17.46
3,5,17,-0.97,-0.11,-0.08,-8.18,12.33,-17.64
3,5,17,-0.97,-0.14,-0.05,-7.2,10.5,-17.33
3,5,17,-0.97,-0.17,-0.01,-7.32,10.01,-17.27
3,5,17,-0.95,-0.2,0.01,-9.64,12.08,-17.27
3,5,17,-0.95,-0.2,0.01,-9.64,12.08,-17.27
3,5,17,-0.94,-0.22,0.03,-12.15,14.1,-16.54
3,5,17,-0.94,-0.24,0.05,-14.53,15.01,-15.38
3,5,17,-0.96,-0.23,0.06,-18.49,15.56,-14.4
3,4,17,-0.98,-0.21,0.08,-22.89,17.7,-12.15
3,4,17,-0.98,-0.21,0.08,-22.89,17.7,-12.15
3,4,17,-0.99,-0.18,0.11,-26.06,21.18,-9.95
3,4,17,-1,-0.13,0.11,-28.99,23.01,-7.51
3,4,17,-1,-0.11,0.11,-31.07,22.64,-5
3,4,16,-0.99,-0.1,0.07,-33.57,20.45,-3.11
3,3,16,-0.99,-0.1,0.07,-33.57,20.45,-3.11
3,3,16,-1,-0.08,0.01,-35.16,16.05,-1.59
3,3,16,-1.01,-0.07,-0.06,-36.19,11.96,0.06
3,3,16,-1.01,-0.07,-0.12,-35.95,9.7,0.85
3,3,16,-1.05,-0.08,-0.2,-33.69,5.86,1.65
3,3,16,-1.05,-0.08,-0.2,-33.69,5.86,1.65
3,3,16,-1.12,-0.09,-0.28,-29.97,1.65,2.32
3,3,16,-1.2,-0.04,-0.32,-24.54,-2.62,3.6
3,3,16,-1.3,0.06,-0.29,-17.33,-10.07,5.19
3,3,16,-1.3,0.06,-0.29,-10.31,-23.5,6.53
3,3,16,-1.38,0.16,-0.22,-10.31,-23.5,6.53
3,3,16,-1.49,0.22,-0.14,-2.38,-40.34,7.69
3,3,16,-1.49,0.25,-0.02,5.37,-51.21,8.73
3,3,16,-1.43,0.28,0.12,10.99,-55.24,9.03
3,3,16,-1.43,0.28,0.12,13.85,-60.67,8.3
3,3,16,-1.35,0.28,0.2,13.85,-60.67,8.3
3,3,16,-1.3,0.22,0.22,14.47,-65.73,7.39
3,3,16,-1.19,0.15,0.25,14.28,-65,6.23
3,3,16,-1.19,0.15,0.25,10.68,-65.67,5.07
3,3,16,-1.18,0.09,0.2,10.68,-65.67,5.07
2,3,16,-1.19,0.11,0.13,4.94,-62.32,3.97
2,3,16,-1.19,0.13,0.09,2.01,-56.21,2.93
2,3,16,-1.2,0.14,0.07,0.67,-51.82,2.01
2,3,16,-1.2,0.14,0.07,0.67,-51.82,2.01
2,3,16,-1.22,0.16,0.1,0.43,-51.51,0.85
1,2,16,-1.22,0.17,0.15,0.73,-52.25,0.67
1,2,16,-1.24,0.22,0.19,-0.18,-52.92,-0.98
0,2,16,-1.24,0.22,0.19,2.14,-48.4,-1.46
0,2,17,-1.2,0.21,0.16,2.14,-48.4,-1.46
0,1,17,-1.17,0.19,0.16,14.95,-45.17,-0.85
-1,1,17,-1.1,0.12,0.13,25.51,-44.49,-1.28
-1,1,18,-1.08,0.09,0.05,23.44,-43.95,-1.59
-1,1,18,-1.08,0.09,0.05,23.44,-43.95,-1.59
-1,1,18,-1.01,0.09,-0.04,16.17,-44.86,-1.83
-1,1,18,-0.93,0.08,-0.13,10.19,-48.22,-3.05
-1,1,18,-0.97,0.04,-0.24,1.95,-59.08,-3.54
-1,1,18,-1.22,0.04,-0.18,-5.07,-74.34,-3.54
-1,1,18,-1.22,0.04,-0.18,-5.07,-74.34,-3.54
-1,1,18,-1.33,0.03,0.07,-0.92,-64.27,-1.83
-1,1,18,-1.18,0.01,0.31,10.38,-24.72,-0.06
-1,1,18,-1.04,-0.01,0.34,17.33,11.23,1.22
-1,1,18,-0.97,-0.03,0.21,17.27,32.59,2.69
-1,1,18,-0.97,-0.03,0.21,17.27,32.59,2.69
-1,1,18,-0.95,-0.05,0.05,18.01,49.62,4.46
-1,1,18,-0.87,-0.04,0.01,20.45,69.09,5.55
-1,1,18,-0.82,-0.04,-0.01,21.55,77.15,6.84
-1,1,18,-0.82,-0.04,-0.01,19.84,78,8.36
-1,1,18,-0.82,-0.01,-0.04,19.84,78,8.36
-1,1,18,-0.85,0.04,-0.04,16.78,77.94,9.28
-1,1,18,-0.83,0.06,-0.08,13.43,78.37,9.09
-1,1,18,-0.83,0.07,-0.12,12.45,75.01,8.79
-1,1,18,-0.83,0.07,-0.12,12.45,75.01,8.79
-1,1,18,-0.83,0.06,-0.17,12.82,69.27,8.91
-1,1,18,-0.83,0.04,-0.18,13.79,63.05,9.09
-1,1,18,-0.82,0.04,-0.17,14.1,56.21,9.7
-1,1,17,-0.81,0.02,-0.15,13.85,50.11,10.5
-1,1,17,-0.81,0.02,-0.15,13.85,50.11,10.5
-1,1,17,-0.8,0.01,-0.14,13.31,43.95,11.54
-1,1,17,-0.82,0.03,-0.14,13.49,37.11,13.06
-1,2,17,-0.84,0.03,-0.12,16.05,32.53,15.01
-1,2,16,-0.84,0.03,-0.12,19.96,31.13,16.54
-1,3,15,-0.84,0.02,-0.07,19.96,31.13,16.54
-1,3,13,-0.85,0.03,-0.04,21.85,30.7,18.31
-1,3,12,-0.86,0.03,-0.03,25.21,30.88,20.02
-1,3,12,-0.86,0.01,0,29.6,31.49,21.61
-1,3,12,-0.86,0.01,0,29.6,31.49,21.61
-1,3,12,-0.87,0,0.01,31.01,31.62,23.01
-1,3,12,-0.88,0.01,-0.01,29.72,31.25,24.35
-1,3,12,-0.9,0.03,-0.02,28.14,30.88,25.15
-1,3,12,-0.9,0.03,-0.02,26.79,30.64,25.21
-1,3,12,-0.92,0.04,-0.03,26.79,30.64,25.21
-1,2,12,-0.93,0.03,-0.03,25.02,29.17,25.09
-1,2,12,-0.95,0.03,-0.02,22.4,27.1,24.05
-1,2,12,-0.95,0.02,0,19.17,25.51,22.77
-1,2,12,-0.95,0.02,0,19.17,25.51,22.77
-1,1,12,-0.96,0,0.01,16.24,23.99,21.24
-1,1,12,-0.97,-0.02,0.03,13.67,21.06,19.47
-1,1,12,-0.99,-0.03,0.04,10.19,19.65,17.88
-1,1,12,-0.99,-0.03,0.04,5.62,19.1,15.99
-1,1,12,-1,-0.04,0.05,5.62,19.1,15.99
-1,1,12,-1,-0.03,0.04,1.4,19.17,14.4
-1,1,12,-1.02,-0.02,0.05,-1.53,19.23,13.24
-1,0,12,-1.03,-0.01,0.05,-3.11,19.9,12.51
-1,0,12,-1.03,-0.01,0.05,-3.11,19.9,12.51
-1,0,12,-1.02,-0.01,0.06,-3.78,20.75,11.96
-1,0,11,-1.01,-0.01,0.07,-3.54,21.42,11.9
0,-1,11,-1,-0.01,0.06,-3.42,21.97,12.02
0,-1,11,-1.01,-0.01,0.05,-3.6,21.55,12.27
0,-1,11,-1.01,-0.01,0.05,-3.6,21.55,12.27
0,-1,10,-1.07,-0.01,0.03,-4.39,20.08,12.57
0,-1,10,-1.18,0.01,-0.01,-4.46,17.64,12.82
0,-1,9,-1.33,0.01,-0.02,-2.08,12.21,13.06
0,-1,8,-1.33,0.01,-0.02,4.33,5.8,12.88
0,-1,8,-1.44,0.01,0.01,4.33,5.8,12.88
0,-1,8,-1.49,-0.02,0.1,12.45,-0.31,12.21
0,-1,8,-1.46,-0.07,0.21,20.81,-4.46,11.66
0,-1,8,-1.36,-0.16,0.26,27.34,-4.76,10.62
0,-1,8,-1.36,-0.16,0.26,30.94,-3.48,9.09
0,-1,8,-1.19,-0.22,0.28,30.94,-3.48,9.09
0,-2,8,-1.08,-0.28,0.26,32.04,-4.94,7.57
0,-2,8,-1.01,-0.35,0.23,31.8,-7.75,6.41
0,-2,8,-1.05,-0.38,0.23,30.27,-12.51,5
0,-2,8,-1.05,-0.38,0.23,28.02,-18.49,3.54
0,-2,7,-1.15,-0.39,0.2,28.02,-18.49,3.54
0,-2,7,-1.2,-0.39,0.22,25.02,-14.1,1.65
0,-2,7,-1.22,-0.38,0.28,23.93,-8.91,-0.31
0,-2,7,-1.25,-0.35,0.34,22.4,-8.42,-1.95
0,-3,7,-1.25,-0.35,0.34,17.58,-8.73,-3.05
0,-4,6,-1.27,-0.3,0.35,17.58,-8.73,-3.05
1,-4,5,-1.25,-0.26,0.3,12.33,-7.75,-4.21
1,-4,5,-1.22,-0.23,0.21,8.85,-7.63,-5.92
1,-4,4,-1.2,-0.21,0.15,8.18,-8.91,-7.02
1,-4,4,-1.13,-0.22,0.15,10.38,-9.09,-7.63
1,-4,3,-1.13,-0.22,0.15,10.38,-9.09,-7.63
1,-4,2,-1.09,-0.21,0.17,9.58,-7.51,-7.08
1,-4,1,-1.04,-0.21,0.25,10.68,-5.31,-6.41
1,-5,0,-0.88,-0.25,0.29,7.63,1.59,-6.16
1,-5,-2,-1.01,-0.38,0.3,-1.65,1.34,-4.15
2,-5,-3,-1.01,-0.38,0.3,-1.65,1.34,-4.15
2,-5,-4,-1.24,-0.29,0.47,-16.97,-8.79,-2.62
2,-5,-5,-0.94,-0.15,0.24,-16.78,18.92,0.61
2,-5,-5,-0.79,-0.06,0.14,-5.74,47.55,1.71
2,-5,-6,-0.66,-0.11,0.13,1.77,56.46,-0.98
2,-5,-6,-0.66,-0.11,0.13,1.77,56.46,-0.98
2,-5,-7,-0.66,-0.17,0.09,11.41,56.52,-0.73
2,-5,-7,-0.66,-0.22,0.11,21.79,53.96,0.85
2,-5,-7,-0.65,-0.24,0.15,22.34,50.6,1.1
2,-5,-7,-0.67,-0.28,0.21,19.59,48.58,0.92
2,-5,-7,-0.67,-0.28,0.21,19.59,48.58,0.92
2,-5,-7,-0.69,-0.23,0.2,12.02,50.11,0.12
2,-6,-7,-0.69,-0.15,0.17,2.2,48.4,-0.73
2,-6,-8,-0.69,-0.14,0.15,-0.18,43.52,-2.26
2,-6,-8,-0.71,-0.12,0.1,-0.24,36.44,-3.05
2,-6,-8,-0.71,-0.12,0.1,-0.31,30.27,-3.48
3,-6,-9,-0.73,-0.14,0.08,-0.31,30.27,-3.48
3,-6,-9,-0.76,-0.17,0.11,-0.55,24.05,-4.52
3,-6,-10,-0.78,-0.18,0.17,-3.36,20.02,-5.74
3,-6,-11,-0.81,-0.21,0.26,-5.31,16.6,-6.23
3,-6,-12,-0.81,-0.22,0.33,-8.61,13.43,-7.45
3,-6,-12,-0.81,-0.22,0.33,-13.79,8,-7.93
3,-6,-12,-0.84,-0.25,0.34,-13.79,8,-7.93
4,-6,-13,-0.85,-0.22,0.32,-18.55,6.71,-8.61
4,-6,-13,-0.84,-0.21,0.3,-20.81,6.77,-8.91
4,-6,-13,-0.84,-0.21,0.27,-21.97,6.23,-9.34
5,-6,-14,-0.82,-0.21,0.26,-22.4,6.29,-9.77
6,-7,-14,-0.82,-0.21,0.26,-22.4,6.29,-9.77
8,-7,-15,-0.8,-0.19,0.27,-23.32,5.98,-9.58
10,-7,-19,-0.81,-0.24,0.29,-23.01,3.6,-8.91
11,-8,-22,-0.81,-0.24,0.28,-23.8,2.14,-8
11,-8,-25,-0.84,-0.22,0.27,-26.43,2.14,-6.16
12,-9,-27,-0.84,-0.22,0.27,-31.01,0.37,-4.46
12,-10,-29,-0.88,-0.17,0.24,-31.01,0.37,-4.46
12,-10,-31,-0.96,-0.1,0.2,-35.1,-3.42,-3.23
12,-10,-31,-1.12,-0.01,0.23,-39.06,-9.83,-2.14
12,-10,-31,-1.25,0.12,0.37,-40.22,-12.82,-1.71
12,-10,-31,-1.29,0.23,0.43,-37.17,-6.04,-1.4
12,-10,-31,-1.29,0.23,0.43,-28.93,11.47,-0.73
12,-11,-31,-1.27,0.26,0.4,-28.93,11.47,-0.73
12,-11,-31,-1.21,0.22,0.37,-17.88,28.81,-0.06
12,-11,-31,-1.16,0.15,0.32,-13.31,33.63,0.55
12,-11,-31,-1.17,0.17,0.3,-14.16,30.94,1.16
12,-11,-31,-1.17,0.17,0.3,-14.28,27.28,1.65
12,-11,-31,-1.19,0.21,0.32,-14.28,27.28,1.65
12,-12,-31,-1.18,0.2,0.38,-9.83,25.94,2.32
11,-12,-31,-1.19,0.24,0.35,-7.14,24.54,3.48
10,-12,-29,-1.21,0.28,0.28,-4.64,22.16,4.58
9,-12,-28,-1.21,0.28,0.28,0.24,20.69,4.33
8,-12,-28,-1.19,0.27,0.23,0.24,20.69,4.33
8,-12,-27,-1.18,0.24,0.18,5.8,19.1,4.76
7,-12,-27,-1.15,0.2,0.19,13.18,17.76,5.86
7,-12,-27,-1.13,0.15,0.21,19.17,16.66,6.16
6,-12,-26,-1.13,0.15,0.21,19.17,16.66,6.16
6,-12,-26,-1.12,0.09,0.22,21.85,14.65,5.8
6,-12,-26,-1.1,0.05,0.22,22.4,13.67,5.74
6,-12,-26,-1.09,-0.01,0.25,24.23,14.16,6.16
6,-12,-26,-1.07,-0.04,0.25,23.32,15.56,6.41
6,-12,-26,-1.07,-0.04,0.25,23.32,15.56,6.41
6,-12,-26,-1.04,-0.05,0.24,20.81,18.31,6.41
6,-12,-26,-1,-0.06,0.23,18.31,19.96,6.29
6,-12,-26,-0.97,-0.05,0.22,15.01,20.75,5.92
6,-12,-26,-0.97,-0.05,0.22,12.39,21.24,5.8
6,-12,-26,-0.94,-0.03,0.2,12.39,21.24,5.8
6,-12,-26,-0.91,-0.03,0.19,10.8,22.09,5.68
5,-12,-26,-0.88,-0.02,0.2,10.44,23.56,5.55
5,-12,-26,-0.85,-0.01,0.2,9.7,25.09,5.62
4,-13,-26,-0.85,-0.01,0.2,8.24,25.33,5.31
4,-13,-26,-0.83,0,0.2,8.24,25.33,5.31
4,-13,-26,-0.82,0.02,0.21,5.55,25.39,4.33
3,-13,-26,-0.83,0.04,0.22,2.93,25.76,3.6
3,-13,-26,-0.83,0.05,0.23,1.89,26.12,2.93
3,-13,-26,-0.83,0.05,0.23,1.89,26.12,2.93
3,-13,-26,-0.84,0.05,0.25,0.18,26.31,1.95
3,-13,-26,-0.85,0.06,0.28,-1.95,26.25,1.28
3,-13,-26,-0.86,0.07,0.29,-3.66,26.06,0.85
3,-13,-26,-0.87,0.09,0.29,-4.7,26,0.79
2,-13,-26,-0.87,0.09,0.29,-4.7,26,0.79
2,-13,-26,-0.89,0.1,0.29,-3.91,25.88,1.16
2,-13,-25,-0.93,0.11,0.28,-2.26,26.06,1.77
2,-13,-22,-0.95,0.08,0.29,1.1,26.98,1.89
1,-14,-19,-0.95,0.08,0.29,2.2,28.26,2.26
1,-14,-16,-0.97,0.05,0.28,2.2,28.26,2.26
1,-14,-13,-1,0.03,0.28,2.56,28.63,2.75
1,-14,-11,-1.04,0.01,0.27,2.56,28.75,3.3
1,-14,-11,-1.1,-0.01,0.28,2.62,28.81,4.7
1,-14,-11,-1.1,-0.01,0.28,2.62,28.81,4.7
1,-14,-11,-1.15,-0.03,0.3,4.46,30.58,6.59
1,-14,-11,-1.19,-0.08,0.31,7.51,33.87,8.97
1,-14,-11,-1.2,-0.14,0.34,10.86,37.9,11.96
1,-14,-11,-1.15,-0.21,0.36,12.39,42.24,15.2
1,-14,-11,-1.15,-0.21,0.36,12.39,42.24,15.2
